timestamp,attitude_roll,attitude_pitch,attitude_yaw,gravity_x,gravity_y,gravity_z,quaternion_x,quaternion_y,quaternion_z,quaternion_w,rotation_rate_x,rotation_rate_y,rotation_rate_z,user_acceleration_x,user_acceleration_y,user_acceleration_z
2025-09-16T01:56:34Z,-0.17671130173163743,0.31532035383906637,-0.14725563786990362,-0.16712595522403717,-0.310121089220047,-0.9358919858932495,0.14956106340817726,-0.0984148663474078,-0.08618252528095104,0.9800604398644697,-0.003441527020186186,-0.00431616697460413,0.0043287272565066814,0.004732668399810791,-0.0017164349555969238,0.00046312808990478516
2025-09-16T01:56:34Z,-0.1768378883485659,0.31519489871587325,-0.14717859127444893,-0.16725127398967743,-0.31000182032585144,-0.9359091520309448,0.14949779221364096,-0.09846746183665783,-0.08614949778449972,0.9800677495826112,-0.004586132243275642,-0.008408425375819206,0.007369229570031166,0.0031012892723083496,-0.0006668269634246826,0.0007734894752502441
2025-09-16T01:56:34Z,-0.1770100893575975,0.31507044064508943,-0.14702250889494842,-0.1674192249774933,-0.3098835051059723,-0.9359182715415955,0.1494369458721395,-0.09853654080590274,-0.08608117807705168,0.9800761131300053,-0.005040900316089392,-0.009431316517293453,0.00917353667318821,0.0029270946979522705,-0.0010131895542144775,0.000408172607421875
2025-09-16T01:56:34Z,-0.17718225339534083,0.3149459484276588,-0.14686646422829577,-0.16758714616298676,-0.30976513028144836,-0.9359273910522461,0.14937609953063857,-0.09860561977514791,-0.08601286575169514,0.9800844170642367,-0.005495668388903141,-0.0104542076587677,0.010977843776345253,0.0027528852224349976,-0.0013595819473266602,4.297494888305664e-05
2025-09-16T01:56:34Z,-0.1773907845118695,0.31481729507862577,-0.14668003158072393,-0.16778935492038727,-0.3096427917480469,-0.9359316825866699,0.1493131492908104,-0.09869013393930942,-0.08593220023541275,0.980092615982549,-0.0053528472781181335,-0.006722967140376568,0.010750108398497105,0.0021448731422424316,-0.0013244152069091797,-0.00019973516464233398
2025-09-16T01:56:34Z,-0.17749518835266812,0.3146787390696726,-0.14651812968963435,-0.1678946316242218,-0.30951106548309326,-0.9359563589096069,0.14924861675731427,-0.09872518185095067,-0.08585539966477694,0.9801056384391439,-0.004488491918891668,-0.007150488439947367,0.009237652644515038,0.0021727830171585083,-0.002256840467453003,-0.00021010637283325195
2025-09-16T01:56:34Z,-0.17765165376838687,0.31455036433883127,-0.14639609031804326,-0.16804809868335724,-0.30938899517059326,-0.9359691739082336,0.14918490049460253,-0.09878903466273752,-0.08580240517435347,0.9801134479361902,-0.005091459956020117,-0.007857565768063068,0.0060285283252596855,0.002307102084159851,-0.0026828646659851074,-0.001014113426208496
2025-09-16T01:56:34Z,-0.17777617309821414,0.3144350209788357,-0.146318633058798,-0.1681709587574005,-0.30927929282188416,-0.9359833598136902,0.1491267412079558,-0.09884092821982018,-0.0857693469853353,0.9801199828287922,-0.006793860346078873,-0.00852072425186634,0.005317557603120804,0.0018367171287536621,-0.0018309950828552246,0.00016349554061889648
2025-09-16T01:56:34Z,-0.17799481682323012,0.3143075432813405,-0.14620350327221315,-0.16838257014751434,-0.309158056974411,-0.9359853863716125,0.14906045611242733,-0.09893579486599811,-0.08572437292908436,0.980124445248565,-0.007247304543852806,-0.013159558176994324,0.009388294070959091,0.0007687509059906006,9.384751319885254e-05,0.0016701221466064453
2025-09-16T01:56:34Z,-0.17825860520619552,0.31419681844691866,-0.14598585424193958,-0.1686355322599411,-0.3090527653694153,-0.9359745979309082,0.14900555319922476,-0.09904564281496901,-0.08563314652323385,0.9801296760671099,-0.007145239505916834,-0.011755244806408882,0.01588098146021366,0.0007097572088241577,-0.001800537109375,-0.00162583589553833
2025-09-16T01:56:34Z,-0.1783795005533555,0.3140617931477563,-0.14570529920925682,-0.16875609755516052,-0.3089243471622467,-0.9359952807426453,0.14894796530398394,-0.0990800877572346,-0.0854995025147346,0.9801466381392868,-0.007180607412010431,0.0016968324780464172,0.015437096357345581,0.00488618016242981,-0.0035536587238311768,-0.004348874092102051
2025-09-16T01:56:34Z,-0.17834565026159374,0.3138269555237579,-0.14545718047478698,-0.1687372773885727,-0.3087009787559509,-0.9360723495483398,0.14884637248629032,-0.09903825520298659,-0.08536641138434987,0.9801779046989694,-0.013739125803112984,0.005143308080732822,0.013530891388654709,0.007962673902511597,-0.002162635326385498,-0.0020758509635925293
2025-09-16T01:56:34Z,-0.1784574398517375,0.31336079281952833,-0.14518035061237886,-0.16886745393276215,-0.3082575500011444,-0.9361950159072876,0.14862637752719673,-0.09905904288674683,-0.0852212275867225,0.9802218213441347,-0.03093813546001911,-0.010044911876320839,0.02205745130777359,0.010953322052955627,0.00383073091506958,0.002973198890686035
2025-09-16T01:56:34Z,-0.17900710213305066,0.31247096237243616,-0.14466152869938223,-0.16943079233169556,-0.30741092562675476,-0.9363715648651123,0.14819168303057856,-0.09926442545263363,-0.08497360191176091,0.9802883862595678,-0.05103696510195732,-0.03513379022479057,0.04346434772014618,0.01537129282951355,0.006515711545944214,0.008414030075073242
2025-09-16T01:56:34Z,-0.18024743144355684,0.31105277775984846,-0.14369030811620012,-0.1706700474023819,-0.30606111884117126,-0.9365886449813843,0.14749087760936017,-0.09976020174299288,-0.08453445986872735,0.9803816953024173,-0.07446026802062988,-0.06617449223995209,0.07901296019554138,0.021399080753326416,0.007925242185592651,0.015406608581542969
2025-09-16T01:56:34Z,-0.18237314852244418,0.30901256280577805,-0.14200097471804052,-0.17277348041534424,-0.30411815643310547,-0.9368358850479126,0.1464838661983573,-0.10062071978102195,-0.08378272313093897,0.9805092189633366,-0.1067260280251503,-0.1100553572177887,0.1222250759601593,0.021034836769104004,0.008147984743118286,0.03065347671508789
2025-09-16T01:56:34Z,-0.19135149584367703,0.3029896958089861,-0.13769197292431573,-0.1815226972103119,-0.29837509989738464,-0.937028169631958,0.1433735645665162,-0.10454627179047478,-0.082075539421157,0.9807026306792601,-0.21553277969360352,-0.3184296488761902,0.23522229492664337,0.01381199061870575,0.022838592529296875,0.06137746572494507
2025-09-16T01:56:34Z,-0.2002858763123974,0.2969302472150633,-0.1334477499841595,-0.19024333357810974,-0.29258623719215393,-0.9371236562728882,0.14025922807885255,-0.10846889853471145,-0.08036605916549928,0.9808685672759102,-0.32433953881263733,-0.5268039703369141,0.34821951389312744,0.006560534238815308,0.037483423948287964,0.09200465679168701
2025-09-16T01:56:34Z,-0.20917688493369668,0.29083492217404205,-0.12926798606244946,-0.19893431663513184,-0.28675222396850586,-0.9371223449707031,0.13714097609009915,-0.11238847349092039,-0.07865431954836001,0.981006969105883,-0.43314629793167114,-0.7351782917976379,0.4612167477607727,-0.0007205605506896973,0.052083179354667664,0.12253504991531372
2025-09-16T01:56:34Z,-0.2270220691860864,0.28015070515686413,-0.12231003465710336,-0.21630212664604187,-0.27650052309036255,-0.9363551139831543,0.13160515001102088,-0.12042645011785696,-0.07591340678101705,0.9810274036549684,-0.5593369007110596,-1.0515657663345337,0.5411996245384216,-0.0018018335103988647,0.043669939041137695,0.1501942276954651
2025-09-16T01:56:34Z,-0.25320395155345915,0.2659729295980309,-0.11395692203899906,-0.24169853329658508,-0.2628481686115265,-0.9340731501579285,0.12419322518863468,-0.1324366218785359,-0.07270785753953231,0.9806885385922897,-0.6653631329536438,-1.4135489463806152,0.6259969472885132,0.00040653347969055176,0.0415620356798172,0.1524549126625061
2025-09-16T01:56:35Z,-0.28704893643768026,0.24884976523381233,-0.10440037508542221,-0.2744019627571106,-0.24628937244415283,-0.9295402765274048,0.11525552612567269,-0.14814190169253078,-0.06896750272111979,0.9798027594022986,-0.7492161989212036,-1.7393642663955688,0.7312201857566833,0.016363590955734253,0.023707449436187744,0.12273228168487549
2025-09-16T01:56:35Z,-0.3260456286019196,0.22979628138576189,-0.09442552022960497,-0.3118797540664673,-0.22777920961380005,-0.9224140048027039,0.10539002608060874,-0.16639086283576263,-0.06484883987079916,0.9782645648054331,-0.7677491307258606,-1.9310302734375,0.7629177570343018,0.03876718878746033,-0.026762545108795166,0.08548015356063843
2025-09-16T01:56:35Z,-0.36792690478550066,0.21068882370159528,-0.08525834207028453,-0.35172829031944275,-0.209133580327034,-0.9124419689178467,0.09552903767340934,-0.1861537135548656,-0.060882214459866406,0.975968381614719,-0.7256452441215515,-2.0394675731658936,0.715297281742096,0.05417028069496155,-0.06707262992858887,0.03870844841003418
2025-09-16T01:56:35Z,-0.41066371967058046,0.19268632910455966,-0.07773264520156602,-0.39182981848716736,-0.19149623811244965,-0.8998880982398987,0.08621655650050405,-0.2064525190385429,-0.05746230519633099,0.972955360426564,-0.6637157797813416,-2.0466651916503906,0.636188805103302,0.06418308615684509,-0.08254402875900269,-0.01840907335281372
2025-09-16T01:56:35Z,-0.4516831371556669,0.17642148164785493,-0.07223018109476942,-0.42970550060272217,-0.17550776898860931,-0.8857483863830566,0.07774934580380492,-0.22601069427956613,-0.05476777646753433,0.9694713440828667,-0.5920474529266357,-1.936208963394165,0.5315530896186829,0.062213897705078125,-0.07818125188350677,-0.06892406940460205
2025-09-16T01:56:35Z,-0.4888078257755979,0.16228425917098213,-0.06870232269280864,-0.4634038805961609,-0.1615729033946991,-0.871292769908905,0.0703147187617685,-0.24374054985853946,-0.052815609716382744,0.9658451520952404,-0.5102069973945618,-1.6968826055526733,0.41509777307510376,0.05277809500694275,-0.06446459889411926,-0.11019241809844971
2025-09-16T01:56:35Z,-0.5201221099522096,0.15050069683790387,-0.06679561806782952,-0.49136829376220703,-0.14993321895599365,-0.857949435710907,0.06404887266938665,-0.25869481095586355,-0.05149826745704935,0.9624565898362306,-0.4380743205547333,-1.4135404825210571,0.329550564289093,0.02082952857017517,-0.024905741214752197,-0.11771422624588013
2025-09-16T01:56:35Z,-0.5459865134259869,0.14035815268492718,-0.06562853271612558,-0.5141550302505493,-0.13989779353141785,-0.8462111353874207,0.05866454724793463,-0.2710219655014053,-0.05041128252324089,0.9594604385419288,-0.38226431608200073,-1.1558433771133423,0.2876259386539459,-0.010364353656768799,0.0023912787437438965,-0.11590361595153809
2025-09-16T01:56:35Z,-0.566882553802373,0.13147824916013112,-0.06477903125636161,-0.5323700904846191,-0.13109980523586273,-0.8362983465194702,0.05400057391702617,-0.28095330309403,-0.049386352927318126,0.9569274039224915,-0.32471179962158203,-0.9182804226875305,0.25352877378463745,-0.0352015495300293,0.012307204306125641,-0.11538958549499512
2025-09-16T01:56:35Z,-0.5828476983799906,0.1240610435912708,-0.06402278455962887,-0.5461735129356384,-0.12374307960271835,-0.8284817934036255,0.05016839937875003,-0.28851726400531263,-0.04839929587415458,0.9549336289418,-0.25433793663978577,-0.6616861820220947,0.20477862656116486,-0.047488629817962646,0.006222441792488098,-0.12215745449066162
2025-09-16T01:56:35Z,-0.5886740586455144,0.12085546881668065,-0.06405660221510227,-0.5512086749076843,-0.12056151032447815,-0.8256112337112427,0.04849115520144953,-0.29127819267821503,-0.04810051164290027,0.95419690074406,-0.18574294447898865,-0.4612446427345276,0.1293070912361145,-0.05693286657333374,0.006085149943828583,-0.10761284828186035
2025-09-16T01:56:35Z,-0.5944983738022511,0.11765014812573639,-0.06410920834241846,-0.5562214851379395,-0.11737895756959915,-0.8227027058601379,0.04681337452142557,-0.2940359318842948,-0.04780119374978237,0.9534496231309506,-0.11714795231819153,-0.2608030438423157,0.05383554846048355,-0.06639933586120605,0.005946889519691467,-0.09310615062713623
2025-09-16T01:56:35Z,-0.6003206882270327,0.11444521153690321,-0.0641806006423977,-0.5612117052078247,-0.1141955778002739,-0.8197565674781799,0.04513508351841604,-0.29679039224660997,-0.04750134978234457,0.9526919153031156,-0.048552967607975006,-0.060361504554748535,-0.021636001765727997,-0.07588857412338257,0.005807787179946899,-0.07863712310791016
2025-09-16T01:56:35Z,-0.6007844141122431,0.1141682498699608,-0.06514778017061312,-0.56160968542099,-0.1139204278588295,-0.8195222616195679,0.04484836175261726,-0.297031104146485,-0.04793184602589297,0.9526088681919294,0.017373599112033844,0.1138836145401001,-0.10099758207798004,-0.07949703931808472,0.005238756537437439,-0.0714978575706482
2025-09-16T01:56:35Z,-0.5970983786443467,0.11633577506849091,-0.06678308520679818,-0.5584449172019958,-0.11607357114553452,-0.8213806748390198,0.04572931652276823,-0.29532775029604863,-0.04894451654331531,0.9530449646084378,0.08818726241588593,0.27815842628479004,-0.17184941470623016,-0.07677382230758667,0.008837081491947174,-0.06732982397079468
2025-09-16T01:56:35Z,-0.589784062172289,0.12059649762741265,-0.06867324247981746,-0.5521420836448669,-0.12030442804098129,-0.8250247836112976,0.04766706098404957,-0.2919168338708242,-0.05029221585677802,0.953930274200365,0.1679418683052063,0.44128817319869995,-0.22328636050224304,-0.07354998588562012,0.012625761330127716,-0.06250107288360596
2025-09-16T01:56:35Z,-0.5792675268032146,0.1267114024872658,-0.07039601379116867,-0.5430224537849426,-0.12637263536453247,-0.830154538154602,0.05060829672905473,-0.28698697224781444,-0.05172850130858186,0.9551970115768328,0.25085124373435974,0.5962541699409485,-0.25737708806991577,-0.07120263576507568,0.014240160584449768,-0.059126317501068115
2025-09-16T01:56:35Z,-0.5655950526084582,0.13457497983218672,-0.07171333295959091,-0.5310727953910828,-0.13416917622089386,-0.8366363048553467,0.05454371113458296,-0.2805473636488953,-0.053097001154098135,0.9568169845757322,0.33915814757347107,0.7535232305526733,-0.2757549583911896,-0.06568342447280884,0.01641717553138733,-0.055859923362731934
2025-09-16T01:56:35Z,-0.5489156918426694,0.14403193703982353,-0.07242764628095204,-0.5163598656654358,-0.14353449642658234,-0.8442572355270386,0.05942798612837959,-0.2726530307289217,-0.05424895713483962,0.9587416670909272,0.424005389213562,0.9022437334060669,-0.28066086769104004,-0.05807596445083618,0.018535681068897247,-0.04327327013015747
2025-09-16T01:56:35Z,-0.529733479755276,0.15482586240118154,-0.07230595626337982,-0.49925917387008667,-0.15420807898044586,-0.8526195883750916,0.06515621805537355,-0.2635239432397631,-0.05501190233914391,0.9608763666290241,0.5034769773483276,1.0078158378601074,-0.26117292046546936,-0.05585429072380066,0.020082488656044006,-0.024513661861419678
2025-09-16T01:56:35Z,-0.5083259608410038,0.16780342373153057,-0.07049138533539089,-0.4798792004585266,-0.16701707243919373,-0.861290454864502,0.07223166484485444,-0.2532535136958673,-0.05504438486736447,0.9631278961633207,0.5929111242294312,1.06459379196167,-0.2513259947299957,-0.0455511212348938,0.007974281907081604,-0.015223801136016846
2025-09-16T01:56:35Z,-0.4868934103804329,0.18081638647919757,-0.06895544974907859,-0.46025484800338745,-0.17983275651931763,-0.869382381439209,0.07929552052607224,-0.24294243534338444,-0.05506802459308579,0.965224702105927,0.6823452711105347,1.1213717460632324,-0.2414790540933609,-0.0354924201965332,-0.004127189517021179,-0.006512880325317383
2025-09-16T01:56:35Z,-0.4644000088179552,0.1956559931998459,-0.06670835527275502,-0.4393409490585327,-0.19441010057926178,-0.8770315051078796,0.08736057788141526,-0.23206115176652006,-0.05476154770993348,0.9672211554389486,0.7505676746368408,1.1708704233169556,-0.24313753843307495,-0.023521006107330322,-0.0015708059072494507,0.0016380548477172852
2025-09-16T01:56:35Z,-0.44136174201761147,0.21142115409244205,-0.06428066886297493,-0.41765961050987244,-0.20984967052936554,-0.8840382099151611,0.09590693609259515,-0.2208681671654328,-0.054264879409858614,0.9690584443827222,0.7696037292480469,1.1767549514770508,-0.23007726669311523,-0.016344428062438965,0.013946741819381714,0.019272267818450928
2025-09-16T01:56:35Z,-0.4191497487791278,0.22645454761706946,-0.06219435393883808,-0.3965930938720703,-0.22452405095100403,-0.8901139497756958,0.1040327646030442,-0.21004809291293733,-0.053711723976269034,0.970655352942864,0.7162829637527466,1.1379940509796143,-0.2268984019756317,-0.004428893327713013,0.016401231288909912,0.022284507751464844
2025-09-16T01:56:35Z,-0.39689025545553974,0.2415295035643749,-0.06044492808945549,-0.3753318786621094,-0.2391880601644516,-0.8954970836639404,0.11213924412468204,-0.199188955363586,-0.05314858229415765,0.9720717900028913,0.6629621386528015,1.0992331504821777,-0.2237195372581482,0.007291972637176514,0.01884530484676361,0.02460414171218872
2025-09-16T01:56:35Z,-0.3770211613857321,0.2526131169078732,-0.060254110802423634,-0.3564683198928833,-0.24993504583835602,-0.9002570509910583,0.11808332849970951,-0.18954624902047096,-0.05294891678582633,0.973306134356332,0.5678937435150146,1.0331642627716064,-0.20884478092193604,0.010977774858474731,0.019447997212409973,0.027502238750457764
2025-09-16T01:56:35Z,-0.3570959786667329,0.2636982205902611,-0.06029086969424206,-0.33747172355651855,-0.2606527507305145,-0.9045291543006897,0.12401207807355098,-0.17987890832530137,-0.052742378154181285,0.9744140650784134,0.47282537817955017,0.9670953750610352,-0.19397002458572388,0.014530569314956665,0.020021408796310425,0.02991241216659546
2025-09-16T01:56:35Z,-0.3371093736022074,0.2747803913808342,-0.06055718491392787,-0.3183520436286926,-0.271335631608963,-0.9083110690116882,0.1299247164968581,-0.1701882287878867,-0.052528988545482144,0.9753954033296444,0.3777570128440857,0.9010264873504639,-0.1790952831506729,0.017960280179977417,0.020559996366500854,0.03183239698410034
2025-09-16T01:56:35Z,-0.319828442883014,0.28192734591172147,-0.06194678425110285,-0.30199140310287476,-0.2782074809074402,-0.9118123650550842,0.13375585324240696,-0.16187394805518734,-0.05263120679945326,0.9762869123160133,0.3085508942604065,0.8297218084335327,-0.17650867998600006,0.01397782564163208,0.01494261622428894,0.0359613299369812
2025-09-16T01:56:35Z,-0.3025009486493949,0.2890500956687298,-0.06346792445044912,-0.2855498492717743,-0.2850418984889984,-0.9149931073188782,0.13757566593021991,-0.15354597503747197,-0.05272896782322241,0.9770958143357544,0.2393447607755661,0.7584171295166016,-0.1739220768213272,0.009914427995681763,0.009287863969802856,0.03976970911026001
2025-09-16T01:56:35Z,-0.2870645987639057,0.2944481658392254,-0.06557030868450424,-0.27095261216163635,-0.29021185636520386,-0.9178026914596558,0.14046831535694534,-0.14617558862675334,-0.05306291450125288,0.9777963220888531,0.18517187237739563,0.6774946451187134,-0.17099128663539886,0.0077925026416778564,0.0036950409412384033,0.04134410619735718
2025-09-16T01:56:35Z,-0.2747967483947718,0.29815587999003024,-0.06805195629082597,-0.2593792974948883,-0.29375800490379333,-0.9200155735015869,0.14243360582711165,-0.14037406440327316,-0.05365638894170555,0.9783295789378949,0.1564106047153473,0.5940465331077576,-0.17209534347057343,0.00677916407585144,-0.002431631088256836,0.037746548652648926
2025-09-16T01:56:35Z,-0.26250525099070315,0.3018342097309398,-0.07058390211367536,-0.2477695345878601,-0.29727205634117126,-0.922084391117096,0.14439347844238215,-0.1345671695336737,-0.054247820031905314,0.9788255256043848,0.12764932215213776,0.5105984210968018,-0.17319940030574799,0.005729347467422485,-0.008590370416641235,0.03400498628616333
2025-09-16T01:56:35Z,-0.25335757665071373,0.3046985992676575,-0.07334124361465236,-0.23910993337631226,-0.3000057339668274,-0.9234841465950012,0.14586508936626696,-0.13031226659545903,-0.05510797299047586,0.9791348392859831,0.10989659279584885,0.4364672303199768,-0.16505077481269836,0.00626787543296814,-0.008157849311828613,0.029976367950439453
2025-09-16T01:56:35Z,-0.2441934374680535,0.3075388018132063,-0.07612846601535417,-0.23043012619018555,-0.30271387100219727,-0.9248060584068298,0.14733361890244276,-0.1260546183015638,-0.055966966109440665,0.9794235906852604,0.09214386343955994,0.36233606934547424,-0.15690214931964874,0.00678621232509613,-0.007750838994979858,0.025869786739349365
2025-09-16T01:56:35Z,-0.2369099150957436,0.3100625224333202,-0.07877766137595738,-0.22350822389125824,-0.30511823296546936,-0.9257142543792725,0.14861213981581847,-0.12270812216638516,-0.056867583534730565,0.9796035157180197,0.08388637751340866,0.3034907877445221,-0.1523997038602829,0.010038435459136963,-0.0138949453830719,0.019937336444854736
2025-09-16T01:56:35Z,-0.23081185763524448,0.3125608022450747,-0.08133293693357053,-0.21768397092819214,-0.30749642848968506,-0.9263150691986084,0.14985748383055447,-0.11993827065061365,-0.057800364945141645,0.9797022222215609,0.08591213822364807,0.25380510091781616,-0.151882603764534,0.012095212936401367,-0.017901897430419922,0.01736605167388916
2025-09-16T01:56:35Z,-0.22565729225361958,0.3151011791108452,-0.0839663373599097,-0.21273088455200195,-0.30991271138191223,-0.9266604781150818,0.15109766630315016,-0.11764030346408855,-0.05883712194520972,0.9797286875981182,0.08753865212202072,0.20746135711669922,-0.15700380504131317,0.012582510709762573,-0.019817352294921875,0.017589271068572998
2025-09-16T01:56:35Z,-0.22133851156533044,0.3176299219611705,-0.08672962607445091,-0.20855414867401123,-0.312315970659256,-0.9268030524253845,0.1523053404653139,-0.11576506002817032,-0.059993820050698865,0.979694933648951,0.08313696086406708,0.16174061596393585,-0.16097040474414825,0.011998534202575684,-0.018988341093063354,0.017901122570037842
2025-09-16T01:56:35Z,-0.21792841334326246,0.3200494594251978,-0.08958627477305028,-0.20522847771644592,-0.31461355090141296,-0.9267683625221252,0.1534313853225636,-0.11434434260618735,-0.061254802507717435,0.9796080117151299,0.07083787024021149,0.10837957262992859,-0.16238783299922943,0.012343987822532654,-0.014876842498779297,0.018345952033996582
