timestamp,attitude_roll,attitude_pitch,attitude_yaw,gravity_x,gravity_y,gravity_z,quaternion_x,quaternion_y,quaternion_z,quaternion_w,rotation_rate_x,rotation_rate_y,rotation_rate_z,user_acceleration_x,user_acceleration_y,user_acceleration_z
2025-09-16T01:56:32Z,-0.17196219837078766,0.312696900813824,-0.15441042928911122,-0.16281810402870178,-0.3076259195804596,-0.937473475933075,0.14813225756691528,-0.09654053505905225,-0.08923830117856252,0.9801904433428578,-0.007316655945032835,-0.031128382310271263,0.029106583446264267,0.002602815628051758,0.002394646406173706,0.0032960176467895508
2025-09-16T01:56:32Z,-0.17285606162511444,0.3124633590525321,-0.15373843007160706,-0.16366836428642273,-0.30740371346473694,-0.9373983144760132,0.14801024110972139,-0.09692158169882231,-0.08896662935582829,0.9801959410922061,-0.00459224171936512,-0.036752186715602875,0.03624546155333519,0.0028540492057800293,0.0009386241436004639,0.0013957023620605469
2025-09-16T01:56:32Z,-0.1738043550881352,0.3122144535704096,-0.1529519396588385,-0.16457043588161469,-0.30716684460639954,-0.9373180270195007,0.1478840765573193,-0.09732044537162714,-0.08864218156124727,0.9802048969462548,-0.005674401763826609,-0.0393437035381794,0.03992123529314995,0.0038150250911712646,0.0007781386375427246,-0.0001296401023864746
2025-09-16T01:56:32Z,-0.17478354247280617,0.3119083625341379,-0.152113820649463,-0.16550451517105103,-0.3068755269050598,-0.9372490048408508,0.14773130227981232,-0.09772900148403169,-0.08829246709931286,0.9802188290191688,-0.010072940960526466,-0.0408116839826107,0.04405486583709717,0.0029435157775878906,0.0015378296375274658,-0.0014510750770568848
2025-09-16T01:56:32Z,-0.17579376625175422,0.3114966647032156,-0.15117386729168183,-0.16647334396839142,-0.306483656167984,-0.9372056126594543,0.14753063031997132,-0.09814218898105768,-0.08789101361082753,0.9802438474040552,-0.015331361442804337,-0.04120027273893356,0.05226624011993408,0.0018829256296157837,0.0024990737438201904,-0.00029152631759643555
2025-09-16T01:56:32Z,-0.1769986167506163,0.310855639734598,-0.15002661046528812,-0.16763697564601898,-0.30587342381477356,-0.9371975660324097,0.14721942649778977,-0.09862882400753976,-0.08739340050536928,0.9802862616298326,-0.0178922638297081,-0.044231947511434555,0.056551069021224976,0.0019636601209640503,0.0026061832904815674,0.0011109709739685059
2025-09-16T01:56:32Z,-0.17820246384784738,0.3102132750196897,-0.14888042042845134,-0.16879989206790924,-0.3052617907524109,-0.9371882677078247,0.14690811842748291,-0.09911540676014965,-0.08689574208010582,0.9803281394655519,-0.020453166216611862,-0.04726362228393555,0.06083589792251587,0.0020436495542526245,0.0027118325233459473,0.002512216567993164
2025-09-16T01:56:32Z,-0.17940528019554178,0.30956961227638224,-0.14773526944511223,-0.1699620485305786,-0.3046487867832184,-0.9371777176856995,0.146596735919913,-0.09960192982255403,-0.08639803081597829,0.9803694213151717,-0.023014068603515625,-0.05029529333114624,0.06512072682380676,0.0021229088306427,0.0028161704540252686,0.003912210464477539
2025-09-16T01:56:32Z,-0.18077875068387453,0.3088065238690392,-0.14643217846594392,-0.1712908297777176,-0.3039218783378601,-0.9371717572212219,0.14622783008735424,-0.1001574835181329,-0.08583029222451743,0.9804178169759187,-0.026888079941272736,-0.06187315657734871,0.0762997418642044,0.0004898756742477417,0.006187766790390015,0.007552802562713623
2025-09-16T01:56:32Z,-0.18260156616473666,0.3079232862796392,-0.14481484716258844,-0.1730475127696991,-0.30308032035827637,-0.937121570110321,0.14579735267888813,-0.10090752359770713,-0.08513595987926433,0.9804654640185775,-0.03201790153980255,-0.08586141467094421,0.09780396521091461,-0.002071693539619446,0.011894851922988892,0.011392414569854736
2025-09-16T01:56:32Z,-0.18526919985232143,0.3068652561275202,-0.1425227177231014,-0.17560575902462006,-0.30207186937332153,-0.9369713068008423,0.14528097246184554,-0.10201857993414452,-0.08416428450845682,0.9805109859277453,-0.038251057267189026,-0.12489628791809082,0.14879468083381653,-0.008489266037940979,0.03051862120628357,0.015349149703979492
2025-09-16T01:56:32Z,-0.18905867197252843,0.3053951823532179,-0.13849850889902468,-0.17923837900161743,-0.30067014694213867,-0.9367342591285706,0.1446077575961704,-0.10354450580962261,-0.08240604857644544,0.9805999097066659,-0.04219251871109009,-0.14878959953784943,0.26668405532836914,-0.014453738927841187,0.05351027846336365,0.01672595739364624
2025-09-16T01:56:32Z,-0.19421785933750046,0.3032958652129233,-0.1318546641183079,-0.18419018387794495,-0.298667311668396,-0.936414361000061,0.14371485077342053,-0.10554081036381466,-0.07943182177111237,0.9807638423997799,-0.051572829484939575,-0.19137154519557953,0.3962986469268799,-0.02322976291179657,0.05486288666725159,0.04510003328323364
2025-09-16T01:56:32Z,-0.20219877924329446,0.3001315973368696,-0.12271223474833934,-0.19184651970863342,-0.29564598202705383,-0.9358356595039368,0.1423408502080567,-0.10872554886997762,-0.07537946767594299,0.9809361663868925,-0.0988987609744072,-0.3577043414115906,0.5269794464111328,-0.0334191769361496,0.06228475272655487,0.09107410907745361
2025-09-16T01:56:32Z,-0.21501299020197845,0.2950881093222678,-0.11108819840496117,-0.20413798093795776,-0.29082420468330383,-0.9347454309463501,0.14004311680151604,-0.1140842380858711,-0.07034505374513952,0.9810322518509961,-0.16827081143856049,-0.5986714959144592,0.6636715531349182,-0.03951457142829895,0.06658457219600677,0.10907196998596191
2025-09-16T01:56:32Z,-0.23372485494921522,0.28758250277687414,-0.0967771073963038,-0.22209134697914124,-0.28363490104675293,-0.9328594207763672,0.13657076695773296,-0.1221421689284905,-0.06423228473308663,0.980970908646727,-0.2599855959415436,-0.8456813097000122,0.8364899754524231,-0.029251694679260254,0.061897680163383484,0.09137934446334839
2025-09-16T01:56:32Z,-0.2573070532662688,0.27734147448606944,-0.0799070631393445,-0.24475280940532684,-0.27379974722862244,-0.930123507976532,0.13189953121211026,-0.1324414676067196,-0.056952726285398346,0.9807232705056981,-0.34306052327156067,-1.0252690315246582,0.9792492389678955,-0.0012734830379486084,0.036572158336639404,0.061783790588378906
2025-09-16T01:56:32Z,-0.2838611209233076,0.26469025856893347,-0.06140239450459452,-0.27031072974205017,-0.26161038875579834,-0.9265484809875488,0.12626652121142368,-0.14416139678137715,-0.04877940360227752,0.9802523668517944,-0.3993326723575592,-1.1372289657592773,1.0733007192611694,0.027448028326034546,0.01738947629928589,0.05661219358444214
2025-09-16T01:56:32Z,-0.31317031409613366,0.24986068643974763,-0.041487061045921945,-0.2985095977783203,-0.24726901948451996,-0.9218188524246216,0.11984523842782893,-0.15725034443191557,-0.03975617696769532,0.9794533026588327,-0.4523163437843323,-1.2817147970199585,1.2074949741363525,0.04589951038360596,0.020473569631576538,0.05916643142700195
2025-09-16T01:56:32Z,-0.3451686287127558,0.23279291580290076,-0.019786709641085778,-0.32922855019569397,-0.23069603741168976,-0.9156352281570435,0.11271550669113119,-0.17169037185514058,-0.029622824789555028,0.9782331551927841,-0.48016536235809326,-1.3874084949493408,1.3126087188720703,0.07091540098190308,-0.029014617204666138,0.03408157825469971
2025-09-16T01:56:32Z,-0.37800481287562826,0.21449358667283572,0.001624835424144199,-0.3606095016002655,-0.21285268664360046,-0.9081048965454102,0.10528687212303586,-0.18671424132571768,-0.019317462196543424,0.9765650377645958,-0.4909595251083374,-1.3990685939788818,1.2728432416915894,0.07884606719017029,-0.0725565254688263,-0.011970579624176025
2025-09-16T01:56:32Z,-0.408278838093507,0.19617952625180546,0.019573411241884307,-0.38941460847854614,-0.19492360949516296,-0.9002005457878113,0.0978688947354598,-0.20080185272716797,-0.010315103424442093,0.9746763164176756,-0.523148775100708,-1.3539913892745972,1.1666346788406372,0.05989730358123779,-0.067425936460495,-0.017169713973999023
2025-09-16T01:56:32Z,-0.4381081416293474,0.17734576616876424,0.036887821020301505,-0.4175732731819153,-0.17641763389110565,-0.8913525938987732,0.09041782532445805,-0.21482159598113515,-0.0013092524224787073,0.9724580448021417,-0.5553380250930786,-1.3089141845703125,1.060426115989685,0.040302008390426636,-0.0628722608089447,-0.02331256866455078
2025-09-16T01:56:32Z,-0.46591258454894774,0.15846596072788663,0.05022016158856352,-0.4436096251010895,-0.15780360996723175,-0.8822179436683655,0.08276583249282221,-0.2281245856266951,0.006086167743081058,0.9700886131241934,-0.5919749140739441,-1.2354810237884521,0.896609902381897,0.03160575032234192,-0.07249388098716736,-0.046619534492492676
2025-09-16T01:56:32Z,-0.49071760587421087,0.14056223535896095,0.059080012847989104,-0.4666111469268799,-0.14009986817836761,-0.8732960820198059,0.07524702856776411,-0.24018705688837635,0.011530290924267605,0.9677370858490006,-0.5972268581390381,-1.0867747068405151,0.6734266877174377,0.022040098905563354,-0.08819776773452759,-0.08015018701553345
2025-09-16T01:56:32Z,-0.5111611728965735,0.12516286566455959,0.06325260041924351,-0.48536360263824463,-0.12483635544776917,-0.8653542995452881,0.06845718124702274,-0.25027275691281925,0.014731178318097598,0.9656397581348533,-0.5560944676399231,-0.8980076313018799,0.4211502969264984,-0.0034856200218200684,-0.0810902789235115,-0.09470456838607788
2025-09-16T01:56:32Z,-0.5272681366219388,0.1130526093381642,0.06345491834769201,-0.49996235966682434,-0.11281197518110275,-0.8586682081222534,0.06277006803023959,-0.25831336115686065,0.015862219662891353,0.9638892760643364,-0.483581006526947,-0.6995006203651428,0.1992938369512558,-0.02934432029724121,-0.0543399378657341,-0.10586804151535034
2025-09-16T01:56:32Z,-0.5389311615424046,0.10438962109801561,0.060899336818924364,-0.5104252099990845,-0.10420016199350357,-0.8535856604576111,0.058359029473367706,-0.26419953027577553,0.015423975070896347,0.9625772311137479,-0.38847097754478455,-0.4842454791069031,0.026470676064491272,-0.045381367206573486,-0.03244367986917496,-0.11327594518661499
2025-09-16T01:56:32Z,-0.5458327062183046,0.0993050343187549,0.056552821998558,-0.5165724158287048,-0.099141925573349,-0.8504844307899475,0.055387318842288605,-0.2677498959801391,0.013820144490697236,0.961795818726055,-0.27147936820983887,-0.2533075213432312,-0.12979601323604584,-0.0512617826461792,-0.024249285459518433,-0.11444288492202759
2025-09-16T01:56:32Z,-0.5480052635924326,0.09776806362947954,0.05088635040971821,-0.5184977054595947,-0.0976124107837677,-0.8494892120361328,0.053902099750107804,-0.2689794434300206,0.011244299152721715,0.9615706529028561,-0.15482208132743835,-0.0247623473405838,-0.2642827332019806,-0.053763508796691895,-0.009804248809814453,-0.09817111492156982
2025-09-16T01:56:32Z,-0.5462374701056982,0.09925715206292618,0.044385823626635554,-0.5169191360473633,-0.09909427911043167,-0.8502793312072754,0.0537360468092699,-0.26827737775183946,0.007964434397746637,0.9618088198408117,-0.05980876088142395,0.12156765162944794,-0.3542932868003845,-0.061112165451049805,0.009571664035320282,-0.06277811527252197
2025-09-16T01:56:32Z,-0.5421735422736986,0.10285621119873632,0.03751031308739083,-0.5132720470428467,-0.10267497599124908,-0.8520620465278625,0.05453472339738697,-0.2664487595621775,0.004282417237124147,0.9622954934764766,0.010871633887290955,0.206064373254776,-0.4075583815574646,-0.060488343238830566,0.02338852733373642,-0.03958737850189209
2025-09-16T01:56:32Z,-0.5366439217619294,0.10787748879505675,0.030526754505027436,-0.5082826614379883,-0.10766839981079102,-0.8544332981109619,0.056017881042571736,-0.2639040027189104,0.0004039266894094162,0.9629208202813766,0.0669933408498764,0.2736189663410187,-0.44231951236724854,-0.055152177810668945,0.024699702858924866,-0.03124082088470459
2025-09-16T01:56:32Z,-0.5296864608836457,0.11425626716858656,0.023491257967560797,-0.5019684433937073,-0.114007867872715,-0.8573388457298279,0.05817191884163528,-0.260665681768724,-0.003627234695610444,0.9636681016678318,0.12657971680164337,0.3447127044200897,-0.4786061644554138,-0.05006128549575806,0.015955477952957153,-0.027767598628997803
2025-09-16T01:56:32Z,-0.518337365062758,0.12399188052026207,0.017162286654603818,-0.4916330873966217,-0.12367445230484009,-0.861975371837616,0.06207979837779987,-0.2552614344710294,-0.007598853468159221,0.964847108575742,0.18947765231132507,0.4287321865558624,-0.48312079906463623,-0.044736236333847046,0.012778840959072113,-0.027161598205566406
2025-09-16T01:56:32Z,-0.5069120761819783,0.13365530562676908,0.010714289732477374,-0.48115020990371704,-0.13325776159763336,-0.8664507269859314,0.06598385148028654,-0.24984146204249041,-0.011570002959984388,0.9659666305512442,0.2523755729198456,0.5127516984939575,-0.48763543367385864,-0.03955870866775513,0.009518928825855255,-0.026716768741607666
2025-09-16T01:56:32Z,-0.495408744808368,0.1432448079439085,0.0041465181914617484,-0.470522403717041,-0.14275546371936798,-0.8707637786865234,0.06988384680460255,-0.24440609204304237,-0.01554044002758002,0.9670266082690201,0.3152734935283661,0.5967711806297302,-0.49215009808540344,-0.03452610969543457,0.0061734020709991455,-0.026434242725372314
2025-09-16T01:56:32Z,-0.4838254873687765,0.1527585317179766,-0.0025417867134794802,-0.4597521722316742,-0.15216515958309174,-0.8749135136604309,0.0737795157533799,-0.23895565198981863,-0.019509918130845894,0.9680268631982922,0.3781714141368866,0.6807906627655029,-0.49666473269462585,-0.029635965824127197,0.0027398616075515747,-0.026314973831176758
2025-09-16T01:56:32Z,-0.4696676890357374,0.16383245654514764,-0.00824993476789016,-0.4465295970439911,-0.16310057044029236,-0.8797780871391296,0.07862155091221676,-0.23222745104531536,-0.02303719972999359,0.9692049501276361,0.4368586540222168,0.7782960534095764,-0.5132489800453186,-0.02115499973297119,-0.008539676666259766,-0.03135955333709717
2025-09-16T01:56:32Z,-0.45236359873648824,0.17672982520759556,-0.013596499139911577,-0.43028444051742554,-0.17581132054328918,-0.8854070901870728,0.08448162616484876,-0.22396275313752265,-0.02638952225408244,0.9705704563868391,0.4690800905227661,0.8209279179573059,-0.5183822512626648,-0.020853251218795776,0.000463142991065979,-0.010531723499298096
2025-09-16T01:56:32Z,-0.4349483417279877,0.18953379113648133,-0.019182225725970396,-0.4138178825378418,-0.18840108811855316,-0.8906513452529907,0.09033192621770166,-0.2156721457648301,-0.029738791335729105,0.971823611330729,0.5013015270233154,0.8635597825050354,-0.523515522480011,-0.02077290415763855,0.009344995021820068,0.009911417961120605
2025-09-16T01:56:32Z,-0.41704156723277513,0.20252240207062694,-0.024525634721784914,-0.39677897095680237,-0.2011408656835556,-0.8956052660942078,0.09636556086159306,-0.20714979742006517,-0.032860435054309536,0.9729967403046554,0.4991516172885895,0.8694632053375244,-0.5020714998245239,-0.017415761947631836,0.02027234435081482,0.01997274160385132
2025-09-16T01:56:32Z,-0.3991723677211381,0.21365057813743715,-0.02936891361474162,-0.37981924414634705,-0.21202892065048218,-0.9004338383674622,0.10159968814051344,-0.19864688546079406,-0.035447443770868205,0.974145866815962,0.44620856642723083,0.861361563205719,-0.471993625164032,-0.012452155351638794,0.018684059381484985,0.018218696117401123
2025-09-16T01:56:32Z,-0.3812039310788356,0.22469206358571908,-0.034427343411783363,-0.36268627643585205,-0.22280621528625488,-0.9048845171928406,0.10682287274219877,-0.19012257774977454,-0.03803062902029003,0.9751900934818009,0.3932655155658722,0.8532599210739136,-0.44191575050354004,-0.007661789655685425,0.016984999179840088,0.016086816787719727
2025-09-16T01:56:32Z,-0.36313203439435454,0.23564284931913032,-0.039702033078975414,-0.3453875482082367,-0.233468160033226,-0.908955454826355,0.11203456967891559,-0.18157782733572508,-0.04060972623865815,0.9761293610014641,0.34032246470451355,0.8451582789421082,-0.4118378758430481,-0.0030371546745300293,0.01517060399055481,0.013575136661529541
2025-09-16T01:56:33Z,-0.34610891418587664,0.2435946452102889,-0.04569023697728361,-0.32922476530075073,-0.2411927431821823,-0.9129277467727661,0.11574617846688078,-0.17360567427244694,-0.043250488089405875,0.9770328544539842,0.2988286316394806,0.8044925928115845,-0.413381427526474,-0.0022307932376861572,0.012911543250083923,0.017679572105407715
2025-09-16T01:56:33Z,-0.32900295270642094,0.2514460395579832,-0.0518292911204012,-0.3129393458366394,-0.24880483746528625,-0.9166052341461182,0.11944793964372437,-0.1656187577362954,-0.04588757067872894,0.9778532036038989,0.25733479857444763,0.7638269662857056,-0.4149249792098999,-0.0015470385551452637,0.010539993643760681,0.021489262580871582
2025-09-16T01:56:33Z,-0.31181255895851784,0.2591942109419081,-0.05811889971536211,-0.29653674364089966,-0.2563018202781677,-0.9199866056442261,0.12313953208139024,-0.1576177330097926,-0.048520750352394316,0.9785902894988162,0.21584095060825348,0.7231613397598267,-0.4164685010910034,-0.000980466604232788,0.008053362369537354,0.025002777576446533
2025-09-16T01:56:33Z,-0.29596843788846666,0.2655031445796102,-0.06479461826543895,-0.28144654631614685,-0.26239487528800964,-0.9230042099952698,0.12611267869318982,-0.15031126082317275,-0.051261562197878335,0.9792212746005515,0.17605191469192505,0.6733050346374512,-0.40169936418533325,0.0003751814365386963,0.008199542760848999,0.02586609125137329
2025-09-16T01:56:33Z,-0.2813428265354822,0.27072397329659764,-0.07144538919593063,-0.26753342151641846,-0.2674291729927063,-0.9256929755210876,0.12856899942115294,-0.14360885450528432,-0.05394767769935555,0.9797633327549934,0.14028848707675934,0.6231500506401062,-0.377819687128067,0.0017978250980377197,0.006766647100448608,0.02526313066482544
2025-09-16T01:56:33Z,-0.26935668592853335,0.274361891487776,-0.07775996103598318,-0.25615838170051575,-0.27093279361724854,-0.9278891682624817,0.1302402077481743,-0.13817703317029498,-0.05650424309482997,0.9801795354593767,0.12031816691160202,0.5753208994865417,-0.3662302494049072,0.0026191771030426025,0.0025579333305358887,0.02111607789993286
2025-09-16T01:56:33Z,-0.25733466027081453,0.2779265492407211,-0.08412586201573602,-0.2447376847267151,-0.2743624150753021,-0.9299616813659668,0.13190634096389317,-0.13273982668181875,-0.05905860385694437,0.9805574744916267,0.1003478467464447,0.5274917483329773,-0.35464081168174744,0.0033948421478271484,-0.0017248690128326416,0.0168454647064209
2025-09-16T01:56:33Z,-0.24527705648249162,0.2814171478670662,-0.09054234596210355,-0.23327307403087616,-0.27771738171577454,-0.9319102764129639,0.133567309421714,-0.12729744355323694,-0.061610655609158876,0.9808970903669872,0.08037751913070679,0.47966259717941284,-0.34305134415626526,0.0041265785694122314,-0.0060822367668151855,0.012450873851776123
2025-09-16T01:56:33Z,-0.2344942297737645,0.28442523700099187,-0.09681495809873404,-0.22301596403121948,-0.28060588240623474,-0.9335545897483826,0.13499248666498326,-0.12247331473217116,-0.06413162976679247,0.9811546066989321,0.07427418231964111,0.44216063618659973,-0.33122462034225464,0.005690187215805054,-0.00598481297492981,0.010588884353637695
2025-09-16T01:56:33Z,-0.22465907079550199,0.2872811785098963,-0.1028583654620553,-0.21364426612854004,-0.28334593772888184,-0.9349177479743958,0.13635392978159588,-0.11810469360986732,-0.06658110205857712,0.9813387722181849,0.07568791508674622,0.4054950773715973,-0.3141990900039673,0.006696581840515137,-0.0040180981159210205,0.011669039726257324
2025-09-16T01:56:33Z,-0.2157302357618455,0.29013696119320076,-0.10850167662756874,-0.20511408150196075,-0.28608351945877075,-0.9359938502311707,0.137732348099498,-0.11416164705997842,-0.06888272026368258,0.9814540257933497,0.08289586007595062,0.36755597591400146,-0.2920674979686737,0.0061995238065719604,-0.0008082389831542969,0.015401780605316162
2025-09-16T01:56:33Z,-0.20773876810745662,0.2930093262641191,-0.1136465867159654,-0.19745735824108124,-0.2888346314430237,-0.936795175075531,0.13913467607847238,-0.1106524308472444,-0.07099280270063381,0.9815078085937781,0.08705452084541321,0.32521212100982666,-0.2628682851791382,0.008430376648902893,0.0026384592056274414,0.01692485809326172
