timestamp,attitude_roll,attitude_pitch,attitude_yaw,gravity_x,gravity_y,gravity_z,quaternion_x,quaternion_y,quaternion_z,quaternion_w,rotation_rate_x,rotation_rate_y,rotation_rate_z,user_acceleration_x,user_acceleration_y,user_acceleration_z
2025-09-18T12:31:50Z,-0.033429627896507774,0.09523148481554071,0.0695807395726259,-0.19941657781600952,-0.33916082978248596,-0.919349193572998,0.04814302128299431,-0.015029612420014413,0.033944009407055255,0.9981502527906079,0.09111358225345612,0.04613707587122917,0.029298769310116768,0.00322626531124115,-0.01038283109664917,0.0035892128944396973
2025-09-18T12:31:50Z,-0.03272241649705303,0.09715761051553518,0.07016649187922172,-0.19889132678508759,-0.3408444821834564,-0.9188401699066162,0.049096515821338844,-0.014628069221715936,0.034236014586329834,0.9980997606033348,0.10286703705787659,0.029206348583102226,0.02540564350783825,0.0007560253143310547,-0.013811200857162476,0.007014751434326172
2025-09-18T12:31:50Z,-0.0323665972966239,0.09932351965348134,0.07061911402803596,-0.19865351915359497,-0.3427708148956299,-0.9181748032569885,0.05017449677040338,-0.014400348036577332,0.034451260527406255,0.9980420315381214,0.11337609589099884,0.013662295415997505,0.013970606029033661,0.0023523718118667603,-0.01609179377555847,0.004951417446136475
2025-09-18T12:31:50Z,-0.03222929257627674,0.1016217706004441,0.07078077237118069,-0.19854238629341125,-0.34486663341522217,-0.9174137115478516,0.05132006336181387,-0.01428624203421553,0.03451485132249151,0.9979832592129179,0.11886109411716461,0.0042228661477565765,-0.004634669050574303,0.0058879852294921875,-0.017252713441848755,-0.001613616943359375
2025-09-18T12:31:50Z,-0.03199359201883679,0.10396945454397821,0.07051450250263824,-0.19823363423347473,-0.3470780849456787,-0.9166461825370789,0.05248548848392294,-0.014133179176087047,0.034367166405763185,0.9979299157909729,0.11171240359544754,0.01270916499197483,-0.02386191114783287,0.00695057213306427,-0.016046196222305298,-0.0050771236419677734
2025-09-18T12:31:50Z,-0.03157637662037787,0.10614458642626985,0.06987857601736758,-0.19766831398010254,-0.3491905629634857,-0.915965735912323,0.05355912304332517,-0.013902853328482232,0.034041675798912804,0.9978872822545987,0.09831105172634125,0.013779575005173683,-0.044034212827682495,0.008086413145065308,-0.016501128673553467,0.0005630254745483398
2025-09-18T12:31:50Z,-0.031163128907288798,0.10805490717284953,0.06884514355808076,-0.19701048731803894,-0.3511238992214203,-0.9153681397438049,0.05449808681487223,-0.013690717495430554,0.03352049957527611,0.9978570189288474,0.08545717597007751,0.021251656115055084,-0.061554670333862305,0.007571578025817871,-0.015312492847442627,0.0009972453117370605
2025-09-18T12:31:50Z,-0.0306586215031565,0.10974910364355851,0.06748250344818107,-0.1961892992258072,-0.35291171073913574,-0.9148568511009216,0.055325698757115536,-0.013446888307634639,0.03283986223541546,0.9978374229387398,0.07537898421287537,0.016203194856643677,-0.078188955783844,0.007261171936988831,-0.014405608177185059,0.007552146911621094
2025-09-18T12:31:50Z,-0.03036696110970601,0.11124495807017301,0.0658359835421097,-0.19549384713172913,-0.35456281900405884,-0.9143671989440918,0.05605621497855218,-0.013321710166026826,0.03201374633660277,0.9978251729278204,0.06396720558404922,-0.00940653309226036,-0.08905787765979767,0.003935888409614563,-0.010992258787155151,0.012773275375366211
2025-09-18T12:31:50Z,-0.03063018825169268,0.11251022997324205,0.06404286977480449,-0.19527094066143036,-0.35602474212646484,-0.9138466119766235,0.056679574233266486,-0.01348253139705437,0.031100948646181424,0.9978166852787305,0.05170542746782303,-0.033505018800497055,-0.08972124755382538,0.00306132435798645,-0.006917208433151245,0.011130750179290771
2025-09-18T12:31:50Z,-0.03127450796812509,0.11348435307548566,0.06226424105939496,-0.195402130484581,-0.3572152554988861,-0.9133538603782654,0.057163267656705506,-0.013838831929068299,0.030186849499617533,0.9978122977654293,0.035956185311079025,-0.04985489323735237,-0.08032216131687164,0.00306817889213562,-0.004791438579559326,0.006653487682342529
2025-09-18T12:31:50Z,-0.03211855561613052,0.11415605989117895,0.060710732663006535,-0.1957746297121048,-0.35808953642845154,-0.9129316210746765,0.05750000970055644,-0.0142938562712675,0.029381700548836053,0.997810592853698,0.021787555888295174,-0.053389422595500946,-0.07117554545402527,0.002171739935874939,-0.005444318056106567,0.003798961639404297
2025-09-18T12:31:50Z,-0.03303063584046669,0.11454383453865258,0.05932107001005676,-0.19625282287597656,-0.3586752116680145,-0.9125990271568298,0.05769659522980264,-0.014782932499524828,0.028658638982517397,0.997813138481253,0.012076016515493393,-0.05146804824471474,-0.06457885354757309,0.0006911754608154297,-0.007310926914215088,0.0068857669830322266
2025-09-18T12:31:50Z,-0.033997287216934374,0.11474372778443281,0.05804684260465661,-0.19681143760681152,-0.35906878113746643,-0.9123238921165466,0.05780042496487557,-0.015298971927250164,0.027993165822785222,0.9978182559416486,1.674611121416092e-05,-0.06033458933234215,-0.06165555492043495,0.00010932981967926025,-0.011441677808761597,0.01042395830154419
2025-09-18T12:31:50Z,-0.035140080661904785,0.11464907986493203,0.05671932929491716,-0.19752031564712524,-0.35920006036758423,-0.9121189713478088,0.05775865231212506,-0.015908880552309396,0.027298734716498886,0.9978302739861937,-0.021534807980060577,-0.06827158480882645,-0.07035727798938751,0.0004914253950119019,-0.015400826930999756,0.007139623165130615
2025-09-18T12:31:50Z,-0.036396207274724264,0.1139289678764014,0.055193278520293286,-0.19829009473323822,-0.35878896713256836,-0.9121137857437134,0.05740389170793552,-0.0165899492861301,0.026508189563780094,0.9978609523730637,-0.05887684226036072,-0.06948991864919662,-0.08068117499351501,0.0008972883224487305,-0.014004111289978027,0.0006096363067626953
2025-09-18T12:31:50Z,-0.03745579390773781,0.1121771658479208,0.05335283630605453,-0.19881488382816315,-0.3574802577495575,-0.912513256072998,0.05652813651677026,-0.01719568508473653,0.025577207886148992,0.9979250015782981,-0.13016189634799957,-0.05165113881230354,-0.09584076702594757,0.0042070746421813965,-0.00996217131614685,-0.008460700511932373
2025-09-18T12:31:50Z,-0.03801674514006951,0.10845254124070088,0.05122775877753126,-0.198839470744133,-0.354400634765625,-0.9137083888053894,0.05465822316943769,-0.017585204741416026,0.024538969588335586,0.9980484474613177,-0.2547956705093384,-0.013841666281223297,-0.09971226006746292,0.0063204169273376465,0.003349989652633667,-0.020491302013397217
2025-09-18T12:31:50Z,-0.037388309456396415,0.10170216422019566,0.04907172120930271,-0.19780777394771576,-0.3485293388366699,-0.9161874055862427,0.05126300974782239,-0.01741649081480317,0.02354754048610383,0.9982554988471387,-0.4364074468612671,0.06346157193183899,-0.08739452064037323,0.010065510869026184,0.005535423755645752,-0.02784031629562378
2025-09-18T12:31:50Z,-0.03531464150620105,0.09101307916713404,0.04702703222269873,-0.19551870226860046,-0.3389764428138733,-0.9202539920806885,0.04588587265024963,-0.01656386649302728,0.022680368366736734,0.9985516866373711,-0.6375978589057922,0.12270805239677429,-0.08066634088754654,0.008508235216140747,0.00020107626914978027,-0.01741582155227661
2025-09-18T12:31:51Z,-0.03219778290392094,0.07631265790272453,0.04491310854636288,-0.19227014482021332,-0.32566192746162415,-0.9257302284240723,0.03849373190992047,-0.015225955615981035,0.02182147356447337,0.9989043915091327,-0.8402101397514343,0.17446301877498627,-0.0777854174375534,0.006773024797439575,-0.008186191320419312,-0.020369529724121094
2025-09-18T12:31:51Z,-0.027853517823275036,0.05754617117062528,0.04269545661974994,-0.18784895539283752,-0.30848461389541626,-0.9324966669082642,0.029056924435392463,-0.01330332504260805,0.020934648506140272,0.9992698322547731,-1.042083501815796,0.24157920479774475,-0.08373875916004181,0.00549645721912384,-0.017600327730178833,-0.025979816913604736
2025-09-18T12:31:51Z,-0.022644354289913876,0.03479320164703816,0.04029454171739125,-0.18253172934055328,-0.28746625781059265,-0.9402368664741516,0.017619136410088124,-0.010967495636874871,0.019944657412852125,0.9995855421666788,-1.2342690229415894,0.27099916338920593,-0.09769676625728607,0.0012332499027252197,-0.013664841651916504,-0.03147047758102417
2025-09-18T12:31:51Z,-0.016436231704294344,0.008412793400793081,0.03807428893053659,-0.1762450635433197,-0.2628198564052582,-0.948611319065094,0.004361917417715121,-0.008136392350742146,0.01900062340896504,0.9997767476764969,-1.3913638591766357,0.34205329418182373,-0.06912291795015335,-0.0021389126777648926,-0.012890636920928955,-0.025209248065948486
2025-09-18T12:31:51Z,-0.009168082297016012,-0.02025076118096838,0.03661298190976066,-0.1690388172864914,-0.23568010330200195,-0.9570165872573853,-0.010039497316720209,-0.004768367349336649,0.018350746274724865,0.9997697225418984,-1.4631026983261108,0.37011146545410156,-0.048696648329496384,-0.0022969096899032593,-0.01664230227470398,-0.0003865361213684082
2025-09-18T12:31:51Z,-0.0020638223469258135,-0.049118301704252215,0.03672054997450264,-0.16227637231349945,-0.20789825916290283,-0.9645956158638,-0.02453359262813402,-0.0014822679849038661,0.018379034726200984,0.9995288702606978,-1.4118404388427734,0.3728044629096985,-0.008678726851940155,-0.0010324865579605103,-0.01984494924545288,0.0012435317039489746
2025-09-18T12:31:51Z,0.005056630187604648,-0.07798433969272828,0.03703398059514789,-0.1554555594921112,-0.17991170287132263,-0.9713214635848999,-0.03902226773079455,0.001804166454814791,0.018403259671788057,0.999067058062964,-1.360578179359436,0.3754974901676178,0.031339194625616074,0.00017355382442474365,-0.02325230836868286,0.002020418643951416
2025-09-18T12:31:51Z,0.012205239677354587,-0.10684742888879104,0.037554938978911545,-0.14858253300189972,-0.1517452746629715,-0.9771881103515625,-0.05350232513705927,0.005090193993847497,0.018423420676968887,0.9983846544775095,-1.3093159198760986,0.3781904876232147,0.0713571161031723,0.0013273954391479492,-0.026839539408683777,0.0019380450248718262
2025-09-18T12:31:51Z,0.019577571667223098,-0.13177281992243015,0.03937728006539442,-0.14177119731903076,-0.12710051238536835,-0.9817058444023132,-0.06601513852829921,0.0084693688281046,0.018999366402431953,0.9976016629288802,-1.11670982837677,0.34364956617355347,0.09231534600257874,-0.003171771764755249,-0.034171611070632935,0.022229552268981934
2025-09-18T12:31:51Z,0.025965471337086737,-0.15150820592889577,0.04180597445819372,-0.1360563188791275,-0.10737394541501999,-0.9848652482032776,-0.07592934171564084,0.011360586592814935,0.019857453454164755,0.9968505821759258,-0.8339104652404785,0.24904781579971313,0.10109086334705353,-0.006312862038612366,-0.04297339916229248,0.03898286819458008
2025-09-18T12:31:51Z,0.03018545159841776,-0.16499897937647648,0.04423903154478442,-0.13247767090797424,-0.09374156594276428,-0.9867432117462158,-0.0827090760457172,0.013214720867448786,0.020796599728635387,0.9962689382380275,-0.5102596282958984,0.138901025056839,0.09469420462846756,-0.004183366894721985,-0.046387284994125366,0.032892823219299316
2025-09-18T12:31:51Z,0.03240798020602788,-0.1720982763401896,0.04624066090474764,-0.13077278435230255,-0.08644531667232513,-0.987636387348175,-0.086281951403298,0.014152423855581788,0.021637526234993577,0.9959351196981494,-0.2009405493736267,0.049941107630729675,0.07079416513442993,0.0010381191968917847,-0.04093283414840698,0.020919978618621826
2025-09-18T12:31:51Z,0.03279875477023378,-0.17341106466134773,0.047294303493458714,-0.13065095245838165,-0.08498591184616089,-0.9877792000770569,-0.08694738064265671,0.01428516875957801,0.022133283798902864,0.9958644284465119,0.06373897194862366,-0.024892710149288177,0.030337143689393997,0.0014899224042892456,-0.031165458261966705,0.008424520492553711
2025-09-18T12:31:51Z,0.03198662882560483,-0.16980911587533204,0.047318427848439044,-0.1314692199230194,-0.0885220393538475,-0.9873599410057068,-0.0851449985543777,0.01392464675115717,0.02221294047755543,0.9960234369548993,0.2899470627307892,-0.0669914186000824,-0.008936259895563126,0.0036593079566955566,-0.02072177827358246,0.01714479923248291
2025-09-18T12:31:51Z,0.029606879977674576,-0.1620685553685877,0.04638275389227849,-0.13360194861888885,-0.09627595543861389,-0.9863475561141968,-0.0812571455614621,0.01287349165008208,0.02191276655058307,0.9963689046397826,0.48207005858421326,-0.15160377323627472,-0.055042993277311325,0.005247339606285095,-0.011852167546749115,0.025496065616607666
2025-09-18T12:31:51Z,0.025612237491872143,-0.15088485165545998,0.04457386019186608,-0.1371103972196579,-0.10754229128360748,-0.9847006797790527,-0.07563056509730728,0.011086665016631107,0.021254935726342336,0.9968475185468088,0.6349599957466125,-0.22089731693267822,-0.08857676386833191,0.00733889639377594,9.909272193908691e-05,0.018901348114013672
2025-09-18T12:31:51Z,0.02022700061829333,-0.13602083845016938,0.04198624773218279,-0.1417875736951828,-0.12252470850944519,-0.9822850823402405,-0.06815136785493553,0.008661252366321806,0.02025485508314106,0.9974315995701651,0.723748505115509,-0.24477972090244293,-0.10686534643173218,0.010634198784828186,0.005625396966934204,0.015632569789886475
2025-09-18T12:31:51Z,0.014890848745098212,-0.12114328898121482,0.03948427951068331,-0.14641880989074707,-0.13747958838939667,-0.9796228408813477,-0.060667856781450126,0.0062352819261597215,0.019253497544748796,0.9979526587176311,0.8125370144844055,-0.26866212487220764,-0.12515392899513245,0.013883531093597412,0.011124148964881897,0.012117147445678711
2025-09-18T12:31:51Z,0.008695758102269583,-0.10426086071147406,0.036550475116483114,-0.15175822377204895,-0.154427632689476,-0.9762794375419617,-0.05217698316229203,0.0033890314995192582,0.018022709911826543,0.9984692913363941,0.8316368460655212,-0.28458163142204285,-0.1307438164949417,0.014977023005485535,0.014601379632949829,0.008463621139526367
2025-09-18T12:31:51Z,0.0025604489649472886,-0.08736078308255348,0.033726480132915515,-0.1570311337709427,-0.17133083939552307,-0.972618579864502,-0.04368183419581524,0.0005424977570644174,0.016790451400238156,0.998904042101421,0.8507367372512817,-0.30050110816955566,-0.13633371889591217,0.016004040837287903,0.018033772706985474,0.004492759704589844
2025-09-18T12:31:51Z,-0.0035840011360111943,-0.07055675562932541,0.031032844918813196,-0.1623048335313797,-0.18807068467140198,-0.9686519503593445,-0.03523897859641785,-0.0023379275822441575,0.015569322208506816,0.9992546820715994,0.8288045525550842,-0.2947043776512146,-0.12920334935188293,0.01664094626903534,0.021503299474716187,0.0018153190612792969
2025-09-18T12:31:51Z,-0.009255506118521007,-0.0549851206877202,0.028973348946005218,-0.16724050045013428,-0.20346584916114807,-0.9646928310394287,-0.02741890914038542,-0.0050237105047158045,0.014607739345669439,0.9995045357230803,0.7778833508491516,-0.2804413139820099,-0.10766910016536713,0.016441598534584045,0.02064552903175354,0.0006813406944274902
2025-09-18T12:31:51Z,-0.014890716594503311,-0.03940209995489121,0.02700377767610181,-0.17212031781673431,-0.2188078761100769,-0.9604674577713013,-0.019596934424663277,-0.0077091363287400015,0.013645143941610162,0.9996849478290781,0.726962149143219,-0.2661782503128052,-0.08613485097885132,0.016186416149139404,0.019734635949134827,-0.0007188916206359863
2025-09-18T12:31:51Z,-0.019990520182046476,-0.025474298307715817,0.02571854247767868,-0.17662374675273895,-0.23240016400814056,-0.9564487338066101,-0.012606602274815026,-0.010157231963636874,0.012984529117261698,0.999784433766499,0.6536419987678528,-0.23393701016902924,-0.06018867343664169,0.014314383268356323,0.018495991826057434,-0.005944967269897461
2025-09-18T12:31:51Z,-0.024327115621666364,-0.01323212545666763,0.025059271336736064,-0.1805296242237091,-0.24423611164093018,-0.9527631998062134,-0.006462612973644964,-0.012244927072167318,0.012608574996345153,0.9998244685650851,0.563197672367096,-0.19637535512447357,-0.029661623761057854,0.011785641312599182,0.017774507403373718,-0.00969475507736206
2025-09-18T12:31:51Z,-0.02782420333694266,-0.0029434965049228634,0.02500830779840619,-0.18377600610256195,-0.25407594442367554,-0.9495639801025391,-0.0012975417063987485,-0.013928953630487372,0.012523079728185942,0.9998235308917993,0.4682543873786926,-0.1542072296142578,-0.0011366810649633408,0.009741917252540588,0.013227596879005432,-0.01120990514755249
2025-09-18T12:31:51Z,-0.030503589086804228,0.00548453438749,0.025441855732863734,-0.1863645762205124,-0.2620415687561035,-0.9468909502029419,0.002935727009924469,-0.015215035305064253,0.012677240125729428,0.9997993995946283,0.37812888622283936,-0.11922577768564224,0.01997745782136917,0.008276328444480896,0.008041679859161377,-0.009507536888122559
2025-09-18T12:31:51Z,-0.03265658474780485,0.012139987434504377,0.026253319670858758,-0.18855345249176025,-0.26824480295181274,-0.9447181224822998,0.006282941905384401,-0.01624619685789624,0.01302519446317222,0.9997632618189806,0.2950950860977173,-0.0966591015458107,0.038475245237350464,0.0047944337129592896,0.003409355878829956,-0.006287217140197754
2025-09-18T12:31:51Z,-0.03445315592511125,0.017126896405296018,0.027270685460870813,-0.19046491384506226,-0.2728204131126404,-0.9430228471755981,0.008796141381597646,-0.017106752778975762,0.013484903407609763,0.9997238655678141,0.2154373824596405,-0.08751659095287323,0.04568900167942047,0.0017015039920806885,-0.0013758838176727295,-0.008681297302246094
2025-09-18T12:31:51Z,-0.035970038652052824,0.02066949654011239,0.02837131763118058,-0.19214236736297607,-0.276006817817688,-0.9417545199394226,0.010586948760210414,-0.017834709271060917,0.013996295431589558,0.9996867372203623,0.15015408396720886,-0.0649874284863472,0.049074169248342514,-0.0008391141891479492,-0.005818575620651245,-0.009937584400177002
2025-09-18T12:31:51Z,-0.03720002139877842,0.023140464962211525,0.029512379713009858,-0.1935674548149109,-0.2781679928302765,-0.9408263564109802,0.011841137195825573,-0.01842497917005205,0.01453695148680253,0.9996542337527479,0.10707297921180725,-0.05470604822039604,0.04784246161580086,-0.003063023090362549,-0.011842787265777588,-0.006142795085906982
2025-09-18T12:31:51Z,-0.038183564391808145,0.024933356442546777,0.030492242707569887,-0.19472452998161316,-0.2797107994556427,-0.9401298761367798,0.012753660458649696,-0.018896900999375278,0.015003606745328857,0.9996273835301662,0.08047165721654892,-0.04689682647585869,0.03872991353273392,-0.0036728233098983765,-0.018252313137054443,-0.005423426628112793
2025-09-18T12:31:51Z,-0.03895215748983366,0.026387716845282357,0.031210522789189767,-0.1956149935722351,-0.2809735834598541,-0.9395683407783508,0.013493240399526605,-0.01926494354666388,0.01534340285562175,0.9996054834590138,0.06759914755821228,-0.03102506883442402,0.02542966417968273,-0.004224449396133423,-0.02465072274208069,-0.007645547389984131
2025-09-18T12:31:51Z,-0.039425560985447416,0.02767815196051327,0.03172783459847954,-0.19617779552936554,-0.2821125388145447,-0.9391095638275146,0.014146864762637192,-0.019487655186090667,0.015585906743875807,0.9995883956019528,0.06417836248874664,-0.0171576589345932,0.014219071716070175,-0.0058768391609191895,-0.02581658959388733,-0.007446348667144775
2025-09-18T12:31:51Z,-0.03966886692410066,0.02896776530052711,0.03195075850365157,-0.19644884765148163,-0.28329697251319885,-0.9386962652206421,0.014795476575696125,-0.019597202355346784,0.015682670029776302,0.9995753412052071,0.06463806331157684,-0.0085993567481637,0.004009705036878586,-0.006447970867156982,-0.024998217821121216,-0.004363536834716797
2025-09-18T12:31:51Z,-0.03970840172161525,0.030306420491851244,0.03189453967155747,-0.19645649194717407,-0.28457170724868774,-0.9383090138435364,0.015464269229660288,-0.019606510185870302,0.015640837027797855,0.9995656892790562,0.0670279860496521,-0.004999054595828056,-0.0018495898693799973,-0.006392329931259155,-0.0262584388256073,-0.001864314079284668
2025-09-18T12:31:51Z,-0.039747846641776365,0.031645101916146334,0.03183836815744644,-0.196463942527771,-0.28584590554237366,-0.9379200339317322,0.01613306735910597,-0.019615801590978817,0.01559899575462555,0.9995555538471927,0.06941790878772736,-0.0013987524434924126,-0.007708884309977293,-0.006336867809295654,-0.027519166469573975,0.0006332993507385254
2025-09-18T12:31:51Z,-0.039787237850788255,0.03298379470293438,0.03178226243774969,-0.19647128880023956,-0.287119597196579,-0.9375293850898743,0.016801862704491136,-0.019625093376794064,0.015557154506729275,0.9995449956412121,0.07180783152580261,0.0022015494760125875,-0.013568177819252014,-0.006281554698944092,-0.02878040075302124,0.0031290650367736816
2025-09-18T12:31:51Z,-0.039826787350118534,0.0345151158512131,0.03163165285867008,-0.1964522749185562,-0.2885896861553192,-0.9370818734169006,0.017565991181528132,-0.019633762358534288,0.015466105696576185,0.9995330934349732,0.07919778674840927,-0.0067107705399394035,-0.010427802801132202,-0.00900202989578247,-0.024948924779891968,0.005224347114562988
2025-09-18T12:31:51Z,-0.03992550549265556,0.03625014799753712,0.031587835524418885,-0.19651353359222412,-0.29023435711860657,-0.9365609884262085,0.018433417836520808,-0.019669480791150367,0.01542578580734782,0.9995173986822741,0.0882376879453659,-0.009222128428518772,-0.006432241294533014,-0.003579750657081604,-0.027621835470199585,-0.0009185075759887695
2025-09-18T12:31:51Z,-0.039818587594567884,0.038096826552692836,0.031511168511180764,-0.196372389793396,-0.29198870062828064,-0.9360451102256775,0.019354717588304267,-0.01960187022077099,0.015369809005255013,0.999502204756739,0.09350897371768951,0.0216631181538105,-0.006527762394398451,0.0015779733657836914,-0.02413886785507202,-0.007330119609832764
