timestamp,attitude_roll,attitude_pitch,attitude_yaw,gravity_x,gravity_y,gravity_z,quaternion_x,quaternion_y,quaternion_z,quaternion_w,rotation_rate_x,rotation_rate_y,rotation_rate_z,user_acceleration_x,user_acceleration_y,user_acceleration_z
2025-09-18T12:32:04Z,-0.06126260920817393,0.03074227290429026,-0.01631222303689523,-0.20412477850914001,-0.2923475205898285,-0.9342730045318604,0.015113050491561805,-0.030747185243723187,-0.008621963267342304,0.9993756254231347,-0.010533982887864113,-0.025692282244563103,0.03621644526720047,-0.0011623501777648926,-0.006644338369369507,0.002324700355529785
2025-09-18T12:32:04Z,-0.06177011672380461,0.030443266292894285,-0.015561006417428244,-0.2048017680644989,-0.29195481538772583,-0.934247612953186,0.01497309499037762,-0.030994010477541998,-0.008245828434708807,0.9993732595901371,-0.018458262085914612,-0.026588868349790573,0.04347684234380722,-0.0015200227499008179,-0.005786925554275513,0.0009012222290039062
2025-09-18T12:32:04Z,-0.062279098840292195,0.02993755741645186,-0.014657477457461035,-0.20552383363246918,-0.29134419560432434,-0.9342796802520752,0.014732414603906424,-0.031239842280218137,-0.007790316783210825,0.9993728086676673,-0.024364609271287918,-0.024218223989009857,0.04573773592710495,-0.0013766586780548096,-0.009551972150802612,0.0018766522407531738
2025-09-18T12:32:04Z,-0.06277573696663945,0.029354547063773953,-0.01376409941692669,-0.20623305439949036,-0.29066166281700134,-0.9343359470367432,0.014453220259884715,-0.031479553152672826,-0.007338451530597204,0.9993727565699748,-0.025478189811110497,-0.021017219871282578,0.04412023350596428,0.0003452897071838379,-0.01246178150177002,0.0008736252784729004
2025-09-18T12:32:04Z,-0.06305122881031124,0.028823624596033177,-0.012976084929038137,-0.20670700073242188,-0.2900436520576477,-0.9344232678413391,0.014199368785832101,-0.03160991549778156,-0.006938341728740922,0.999375158177003,-0.023448288440704346,-0.010789844207465649,0.039141424000263214,0.0009810924530029297,-0.014920085668563843,0.0018284320831298828
2025-09-18T12:32:04Z,-0.06287512838313374,0.0282534481568927,-0.01235074242453975,-0.2067168951034546,-0.289412260055542,-0.9346168637275696,0.013924921158817096,-0.03151584694854347,-0.006615679404816201,0.9993841828601316,-0.03501797467470169,0.013024666346609592,0.03341500088572502,0.004196792840957642,-0.01517421007156372,-0.004086196422576904
2025-09-18T12:32:04Z,-0.06269868685525488,0.02768339121824679,-0.011725304956192211,-0.2067263424396515,-0.28878071904182434,-0.9348101019859314,0.013650476281799802,-0.03142178047351251,-0.00629301419398657,0.9993929667847722,-0.046587660908699036,0.03683917969465256,0.02768857590854168,0.007412031292915344,-0.015428483486175537,-0.010001122951507568
2025-09-18T12:32:05Z,-0.06252190364429525,0.027113440532604335,-0.011099772829508811,-0.20673537254333496,-0.2881491482257843,-0.9350029826164246,0.013376025096023477,-0.03132771014045088,-0.005970345009339002,0.9994016893639843,-0.05815734714269638,0.0606536939740181,0.021962150931358337,0.010626882314682007,-0.01568278670310974,-0.015916407108306885
2025-09-18T12:32:05Z,-0.06134875089650279,0.02584972272701798,-0.01077287934906164,-0.20574627816677094,-0.2869049608707428,-0.9356035590171814,0.012753051096902477,-0.030736148019590393,-0.0057798142705738345,0.9994292872733386,-0.09213986992835999,0.08151208609342575,0.01291781384497881,0.009580358862876892,-0.012348860502243042,-0.009287893772125244
2025-09-18T12:32:05Z,-0.059692492252528054,0.023612051480922196,-0.01062503940636297,-0.2042733132839203,-0.28476449847221375,-0.936579704284668,0.011641805313601252,-0.029902008881301533,-0.005662059665537336,0.9994688508895426,-0.14092102646827698,0.08716528862714767,0.010939478874206543,0.008276313543319702,-0.010766535997390747,-0.000863492488861084
2025-09-18T12:32:05Z,-0.05792808528106477,0.020247001451184295,-0.01062676674212184,-0.20267519354820251,-0.28157612681388855,-0.9378899931907654,0.009965073464510648,-0.02901187099713142,-0.0056040259339953285,0.9995135334088149,-0.19985616207122803,0.09109863638877869,0.008229868486523628,0.009049743413925171,-0.012368738651275635,0.0018401145935058594
2025-09-18T12:32:05Z,-0.0560185409010504,0.015597992641082784,-0.01070891312057756,-0.20093508064746857,-0.27717775106430054,-0.9395731091499329,0.00764579816407995,-0.028046102097643164,-0.005570579278458724,0.9995617042597461,-0.27033674716949463,0.10406478494405746,0.008744293823838234,0.010531693696975708,-0.013826847076416016,0.001820206642150879
2025-09-18T12:32:05Z,-0.053744456826587045,0.009372163622152693,-0.010819151736224733,-0.19886070489883423,-0.2712782323360443,-0.9417337775230408,0.004538957465087535,-0.026893651305142194,-0.005533446082367475,0.9996125045397978,-0.3568015396595001,0.11809128522872925,0.013158289715647697,0.007938191294670105,-0.01198849081993103,0.0025032758712768555
2025-09-18T12:32:05Z,-0.051267062997713164,0.001052293862567503,-0.010884982234884641,-0.1966237872838974,-0.2633660137653351,-0.9444455504417419,0.00038647200100318897,-0.025633207659653903,-0.005454161676683113,0.9996563122575253,-0.48393040895462036,0.135961651802063,0.02480456233024597,0.007341057062149048,-0.0006403326988220215,-0.008890092372894287
2025-09-18T12:32:05Z,-0.048068128159039145,-0.01030259618627086,-0.010490884730978428,-0.19384554028511047,-0.2524665594100952,-0.9479897618293762,-0.005275772388238725,-0.024004091209576067,-0.00512004201556325,0.9996846966819563,-0.659511387348175,0.19311538338661194,0.07196255028247833,0.006253182888031006,0.009406745433807373,-0.019701898097991943
2025-09-18T12:32:05Z,-0.04368673785107773,-0.025459398580721944,-0.009192925078472481,-0.19019228219985962,-0.23775267601013184,-0.9525232315063477,-0.01282657212409102,-0.02178113904446879,-0.004316951130556946,0.9996710058007973,-0.8577578067779541,0.23532113432884216,0.12763497233390808,0.0011160671710968018,0.008116036653518677,-0.021272897720336914
2025-09-18T12:32:05Z,-0.03839396087076471,-0.04450370876096561,-0.006985568688555489,-0.1858924776315689,-0.21910172700881958,-0.9578300714492798,-0.022312816531930506,-0.0191132352896714,-0.003064165203190874,0.9995634537269746,-1.0374435186386108,0.2797672152519226,0.17051999270915985,-0.0015180706977844238,-0.004266649484634399,-0.02608942985534668
2025-09-18T12:32:05Z,-0.0323089494258434,-0.06669462578411599,-0.004141087210234573,-0.180952787399292,-0.1972278356552124,-0.9635130167007446,-0.0333701436764004,-0.01607573336084845,-0.0015305371071189042,0.9993124627519899,-1.161455512046814,0.3080102205276489,0.1848450005054474,-0.004276156425476074,-0.018302902579307556,-0.03201782703399658
2025-09-18T12:32:05Z,-0.025527490264515246,-0.09065833114330006,-0.0010225369437318016,-0.1753411591053009,-0.1734897345304489,-0.9691010117530823,-0.045316472573455696,-0.012727122807022545,6.765452935849848e-05,0.998891453142285,-1.208588719367981,0.3483847379684448,0.1932310163974762,-0.00651492178440094,-0.025085434317588806,-0.03005087375640869
2025-09-18T12:32:05Z,-0.018018299371011817,-0.11441293456700335,0.00234604362942266,-0.16900520026683807,-0.14981824159622192,-0.9741620421409607,-0.057162368939120654,-0.009061350783014958,0.0016861488039101413,0.9983221957130138,-1.1411288976669312,0.35781705379486084,0.18997223675251007,-0.010842785239219666,-0.03961336612701416,-0.001992940902709961
2025-09-18T12:32:05Z,-0.010950938155792383,-0.13562990340799205,0.005665233694410621,-0.16301128268241882,-0.12855660915374756,-0.9782128930091858,-0.0677462370662698,-0.005654778886658069,0.003197091378057496,0.9976812333388042,-0.9594736099243164,0.29863786697387695,0.16559813916683197,-0.014566957950592041,-0.05486832559108734,0.028329908847808838
2025-09-18T12:32:05Z,-0.005505357202366087,-0.15232376806560874,0.008485123954657182,-0.15842486917972565,-0.11175499856472015,-0.9810261726379395,-0.07607567106738762,-0.003067478384548011,0.004439679770513492,0.9970872567646301,-0.6961370706558228,0.19875186681747437,0.12412300705909729,-0.015293300151824951,-0.0600346103310585,0.04078519344329834
2025-09-18T12:32:05Z,-0.0021949542566949217,-0.16322531867267873,0.01051102817150904,-0.15570415556430817,-0.10073810815811157,-0.9826535582542419,-0.08151518223724273,-0.0015222475879603191,0.005327462401386469,0.996656519217269,-0.38937169313430786,0.09907492995262146,0.0806763768196106,-0.012766629457473755,-0.055728040635585785,0.041264355182647705
2025-09-18T12:32:05Z,-0.0010076708876817862,-0.16786654000263093,0.011715139803406492,-0.15484970808029175,-0.09599227458238602,-0.9832634925842285,-0.08383038170859697,-0.0009931185800534424,0.005879154502203039,0.9964620174586863,-0.07420879602432251,-0.003208629786968231,0.033622946590185165,-0.0076831430196762085,-0.04824615269899368,0.04002195596694946
2025-09-18T12:32:05Z,-0.0020740222506250043,-0.16639267261495544,0.01185161164112938,-0.15593315660953522,-0.09742090851068497,-0.9829517006874084,-0.08309277894830473,-0.0015258399958014285,0.0059914472386764835,0.9965224849047691,0.21618011593818665,-0.10256844013929367,-0.017562583088874817,-0.0007524788379669189,-0.033057041466236115,0.030582189559936523
2025-09-18T12:32:05Z,-0.00502391357867949,-0.15955219591542477,0.010997709169503055,-0.1586075872182846,-0.10427430272102356,-0.9818199872970581,-0.07967629004155012,-0.002942136057822569,0.005681500049504577,0.9968001438699682,0.4532235264778137,-0.17713594436645508,-0.06260962784290314,0.00589163601398468,-0.013698488473892212,0.018698573112487793
2025-09-18T12:32:05Z,-0.0093256671416927,-0.1486279340603263,0.009408420453422352,-0.16240692138671875,-0.1152433305978775,-0.9799709320068359,-0.07422208886920334,-0.00499915804466991,0.005037348469201446,0.997216397238836,0.6234261989593506,-0.22223368287086487,-0.0969599187374115,0.011012151837348938,0.0036472007632255554,0.007160604000091553
2025-09-18T12:32:05Z,-0.014245907350958192,-0.13435294813219398,0.007045043688003127,-0.16658926010131836,-0.1295994222164154,-0.9774722456932068,-0.0670988142701977,-0.007343230644341179,0.003992608970356125,0.997711229916857,0.6755849123001099,-0.21901820600032806,-0.11773018538951874,0.015591427683830261,0.012754075229167938,-0.00048547983169555664
2025-09-18T12:32:05Z,-0.019123178900503624,-0.1200666756932811,0.004756757049646614,-0.17072364687919617,-0.14392875134944916,-0.9747502207756042,-0.05997167865583128,-0.009686882861072454,0.002947642681315733,0.9981486175765132,0.7277436256408691,-0.21580272912979126,-0.13850045204162598,0.02012273669242859,0.021834149956703186,-0.00835496187210083
2025-09-18T12:32:05Z,-0.023548716166624694,-0.10552929054554863,0.0021788152482260514,-0.17431440949440002,-0.15851718187332153,-0.9718471169471741,-0.0527236747020472,-0.011815145541082468,0.0017087830311079482,0.9985376701189274,0.7127803564071655,-0.19122906029224396,-0.1484919786453247,0.020333468914031982,0.023954853415489197,-0.008882880210876465
2025-09-18T12:32:05Z,-0.02739572966013396,-0.09174243161285942,-0.00048814802315823167,-0.17729565501213074,-0.17235440015792847,-0.9689480066299438,-0.04585417170665212,-0.013671838100257046,0.0003843034902236138,0.9988544087544737,0.6611279249191284,-0.16660389304161072,-0.14963655173778534,0.017543330788612366,0.022984206676483154,-0.0033417940139770508
2025-09-18T12:32:05Z,-0.03071691642601426,-0.07922117564982643,-0.003050784266966731,-0.17977648973464966,-0.18491335213184357,-0.9661715626716614,-0.03961892771545586,-0.015285393227291456,-0.0009158413602507364,0.9990973876034235,0.5920472741127014,-0.1462237685918808,-0.14253759384155273,0.015327632427215576,0.02027319371700287,0.0047814249992370605
2025-09-18T12:32:05Z,-0.033610718377335154,-0.06805967140008554,-0.005411988794859424,-0.1818842589855194,-0.19609476625919342,-0.9635688662528992,-0.0340637902753835,-0.016702725945626593,-0.002132298442838135,0.9992776786740811,0.5220246315002441,-0.1320571005344391,-0.1286126971244812,0.01366528868675232,0.011344924569129944,0.012463688850402832
2025-09-18T12:32:05Z,-0.03635466910727713,-0.058262190277597076,-0.0075084392938508755,-0.1839084029197693,-0.2058923840522766,-0.9611378908157349,-0.029190171580773857,-0.01805916580101111,-0.0032225805108449562,0.999405369617352,0.46297726035118103,-0.1358223557472229,-0.11745626479387283,0.01235167682170868,0.003209546208381653,0.01766282320022583
2025-09-18T12:32:05Z,-0.03919454800817436,-0.0495800932664049,-0.009451797943024504,-0.1860574632883072,-0.21457014977931976,-0.9588233828544617,-0.024875056067968086,-0.019472663286220375,-0.004237791709292294,0.9994917190030679,0.4046585261821747,-0.13973213732242584,-0.10471782833337784,0.008668273687362671,0.0016822516918182373,0.010748326778411865
2025-09-18T12:32:05Z,-0.04197034621666317,-0.04204032451635797,-0.011067124139212956,-0.1882263571023941,-0.2220817655324936,-0.9566872715950012,-0.02112975736709164,-0.020862398997205992,-0.005090054059636611,0.9995458715836428,0.34967121481895447,-0.12927941977977753,-0.0889953225851059,0.007662072777748108,7.602572441101074e-05,0.0038832426071166992
2025-09-18T12:32:05Z,-0.04446428889816883,-0.03556207755646592,-0.012387613732475676,-0.19020088016986847,-0.2285153865814209,-0.9547797441482544,-0.01791303868899836,-0.022116278899139943,-0.005796009253062703,0.9995778857574938,0.3000832498073578,-0.11753260344266891,-0.07393142580986023,0.006130099296569824,-0.0033303648233413696,0.0025742053985595703
2025-09-18T12:32:05Z,-0.04679191276168583,-0.029874088089774303,-0.013530239461737176,-0.1920616626739502,-0.23415358364582062,-0.9530395865440369,-0.01509030454064005,-0.023289661679701628,-0.006413049495304434,0.9995941478800436,0.2650897204875946,-0.11858709901571274,-0.06702286005020142,0.0033054202795028687,-0.008409366011619568,0.00017434358596801758
2025-09-18T12:32:05Z,-0.049133713453306624,-0.02476243512566215,-0.014631366998553504,-0.19394467771053314,-0.2392246276140213,-0.9513974189758301,-0.012556526466994393,-0.024471303659429185,-0.007008730345086882,0.9995969098398005,0.2387152910232544,-0.11547067016363144,-0.06401772052049637,0.0013866275548934937,-0.009564399719238281,-0.005712330341339111
2025-09-18T12:32:05Z,-0.05137465874267318,-0.0201885438391697,-0.015618316500516647,-0.19576045870780945,-0.2437569499015808,-0.9498738646507263,-0.010291026609389402,-0.025603617429680606,-0.007546852022556242,0.9995905497711812,0.21476007997989655,-0.1050579771399498,-0.05412539094686508,0.0007967203855514526,-0.007754981517791748,-0.011952698230743408
2025-09-18T12:32:05Z,-0.053307295253528494,-0.016155221817190583,-0.01636599293895739,-0.19734670221805573,-0.24773119390010834,-0.9485164880752563,-0.008292456660625525,-0.026582661027319227,-0.007964470477121585,0.9995803061928844,0.18600241839885712,-0.0881858542561531,-0.039208319038152695,-0.0008448809385299683,-0.0075171589851379395,-0.014483869075775146
2025-09-18T12:32:05Z,-0.0548908739013847,-0.012671948712922616,-0.016872882076044992,-0.19866767525672913,-0.2511397898197174,-0.947343647480011,-0.006564827001169566,-0.027387036873812873,-0.008259131494945568,0.9995690557374397,0.15922102332115173,-0.06741108745336533,-0.02629319205880165,1.3232231140136719e-05,-0.010659545660018921,-0.015043437480926514
2025-09-18T12:32:05Z,-0.05604801887507149,-0.009640807981610235,-0.01708722176442269,-0.19966454803943634,-0.2540702521800995,-0.9463521242141724,-0.005057706882943593,-0.027977831161648217,-0.008404990590401817,0.9995602441170108,0.1430530548095703,-0.04573404788970947,-0.01170428842306137,-0.0022950172424316406,-0.013701975345611572,-0.0111733078956604
2025-09-18T12:32:05Z,-0.05674514395885744,-0.006908457572972239,-0.017002514277979736,-0.20030690729618073,-0.25666916370391846,-0.9455147385597229,-0.003693873591812623,-0.028338223834180828,-0.008399695752800035,0.9995560694273872,0.132761612534523,-0.023450614884495735,0.008183157071471214,-0.004481971263885498,-0.016679763793945312,-0.009404301643371582
2025-09-18T12:32:05Z,-0.05703411181734377,-0.004289058188817846,-0.01662233752083224,-0.20064149796962738,-0.259115070104599,-0.9447763562202454,-0.00238055677836548,-0.02849433076421549,-0.008246531398380389,0.999556882755093,0.13266149163246155,-0.009990479797124863,0.01150377094745636,-2.4273991584777832e-05,-0.02457726001739502,-0.010675370693206787
2025-09-18T12:32:05Z,-0.056860539274002274,-0.001693181068522137,-0.016121000808742462,-0.20057082176208496,-0.2615189552307129,-0.9441288113594055,-0.001075349931733862,-0.02841869141740451,-0.008033089920577987,0.9995630274504845,0.13092933595180511,0.019381515681743622,0.0165410153567791,0.001415550708770752,-0.025154203176498413,-0.009099245071411133
2025-09-18T12:32:05Z,-0.05635068121473935,0.0008483990648050001,-0.01563562464595831,-0.2001793533563614,-0.2638716399669647,-0.94355708360672,0.0002037800504027162,-0.02817406774446057,-0.00782658007280191,0.9995722541678298,0.11864081770181656,0.02134811505675316,0.015308519825339317,0.0018415451049804688,-0.02350527048110962,-0.00422137975692749
2025-09-18T12:32:05Z,-0.055910144801178285,0.0030629475788611473,-0.015247548026204162,-0.19983279705047607,-0.26592522859573364,-0.9430539011955261,0.0013177373585926554,-0.02796226085377549,-0.007663519113530089,0.9995786077609501,0.09805847704410553,0.020091159269213676,0.012490114197134972,0.0021893978118896484,-0.019749313592910767,-0.0012189149856567383
2025-09-18T12:32:05Z,-0.055533892563026696,0.004743065772856682,-0.01497122870404272,-0.1995256543159485,-0.26748502254486084,-0.9426777362823486,0.002162726881762042,-0.027780271361761574,-0.007548478742831017,0.9995830841568959,0.07113438099622726,0.015973325818777084,0.009546793065965176,0.0039871931076049805,-0.018458187580108643,0.0014764666557312012
2025-09-18T12:32:05Z,-0.05520849373342329,0.005958292458396763,-0.014733117141317784,-0.19926345348358154,-0.26860710978507996,-0.9424141049385071,0.002774606519504672,-0.027621809812280622,-0.007445877793320001,0.9995867746309727,0.04993381351232529,0.008099434897303581,0.007931418716907501,0.0028040707111358643,-0.018748432397842407,0.00796288251876831
2025-09-18T12:32:05Z,-0.055118994679476535,0.006890435560327889,-0.014567903620432135,-0.19920866191387177,-0.26947006583213806,-0.942179262638092,0.0032430979575423756,-0.027580202228547693,-0.00737601277619362,0.9995870111214636,0.03960452973842621,-0.003164605237543583,0.005602584220468998,0.0024155229330062866,-0.018876582384109497,0.013899922370910645
2025-09-18T12:32:05Z,-0.055344726571383104,0.007661343631629983,-0.014421880614992874,-0.19944818317890167,-0.27018222212791443,-0.9419246315956116,0.003629581527688001,-0.027695523993298724,-0.007314052162799838,0.9995829565422534,0.03375474363565445,-0.01859363168478012,0.0023420487996190786,0.001958981156349182,-0.018817096948623657,0.014271080493927002
2025-09-18T12:32:05Z,-0.0558154496631305,0.00828334590003976,-0.0143300787334598,-0.19990625977516174,-0.27076053619384766,-0.9416614174842834,0.003940011817892767,-0.027932812410420022,-0.007277693604569738,0.9995754630464994,0.02630128525197506,-0.023437418043613434,0.002937003504484892,0.0036894381046295166,-0.015741199254989624,0.009241998195648193
2025-09-18T12:32:05Z,-0.056361531016100266,0.008708928156592967,-0.014224089329752103,-0.20044176280498505,-0.27114975452423096,-0.9414355754852295,0.004152219213450707,-0.02820701744206545,-0.007231787213267891,0.9995671405382239,0.01064235344529152,-0.022758474573493004,0.006358927581459284,0.003153756260871887,-0.009150713682174683,0.005610525608062744
2025-09-18T12:32:05Z,-0.056855784336382116,0.008733827953928443,-0.014069962930571856,-0.200947105884552,-0.27115073800086975,-0.9413275122642517,0.004165069267739616,-0.028453803538990817,-0.007156137536577765,0.9995605979489444,-0.009411700069904327,-0.02327481471002102,0.012543982826173306,0.0020503252744674683,-0.0036596357822418213,0.003982603549957275
2025-09-18T12:32:05Z,-0.05736274024253344,0.008369844188229295,-0.013733416972034113,-0.20151829719543457,-0.27075499296188354,-0.9413193464279175,0.003986174168889796,-0.028705238683452816,-0.006983780806150519,0.9995554555718678,-0.028743522241711617,-0.023172685876488686,0.023596424609422684,0.001331046223640442,-0.0015351474285125732,0.0015589594841003418
