timestamp,attitude_roll,attitude_pitch,attitude_yaw,gravity_x,gravity_y,gravity_z,quaternion_x,quaternion_y,quaternion_z,quaternion_w,rotation_rate_x,rotation_rate_y,rotation_rate_z,user_acceleration_x,user_acceleration_y,user_acceleration_z
2025-09-20T02:28:32Z,0.07819049377256147,0.22726056504948974,0.4671200520494296,-0.17202137410640717,-0.3566230833530426,-0.9182748198509216,0.10123537446157196,0.06400108559322955,0.23408543439662371,0.9648106350334382,0.003024282632395625,0.014843618497252464,-0.01021789200603962,0.005123436450958252,-0.020707815885543823,-0.01481783390045166
2025-09-20T02:28:32Z,0.07859740717826852,0.22730038272947878,0.46676062876707974,-0.1715986728668213,-0.3567441403865814,-0.9183068871498108,0.1012185312073292,0.06418368028704564,0.23393287143213393,0.9648372772418496,0.004947341978549957,0.020890923216938972,-0.022234303876757622,0.007283538579940796,-0.022724658250808716,-0.012504339218139648
2025-09-20T02:28:32Z,0.07914484735760759,0.22729970779619066,0.4661459619776882,-0.1710100620985031,-0.35688909888267517,-0.9183603525161743,0.10117397955810388,0.06441661885773549,0.23366405717173733,0.9648914455423601,-0.0005832728929817677,0.015762202441692352,-0.033839136362075806,0.00590243935585022,-0.019502997398376465,-0.010834991931915283
2025-09-20T02:28:32Z,0.07957484823613392,0.2271115319574465,0.46529969372052504,-0.1704915463924408,-0.35691970586776733,-0.9184448719024658,0.10106008808461353,0.06456015476510385,0.23327635533604557,0.9649875664747748,-0.01057688519358635,0.009982068091630936,-0.04602527618408203,0.005053192377090454,-0.016035854816436768,-0.009955048561096191
2025-09-20T02:28:32Z,0.07982422105487971,0.2268308303699885,0.464479328136086,-0.17013970017433167,-0.3568606674671173,-0.9185330271720886,0.10092178161584495,0.06460757700844973,0.23289135870573402,0.9650918462186092,-0.01381746120750904,-0.01018916442990303,-0.02760046161711216,0.002944841980934143,-0.005642950534820557,-0.001148521900177002
2025-09-20T02:28:32Z,0.07949328279265373,0.2266111827074039,0.46419681583246036,-0.17039786279201508,-0.3567293882369995,-0.9185361862182617,0.10086319722166633,0.06440902302933067,0.232736964744907,0.9651484763414532,-0.0076176561415195465,-0.03003714419901371,-0.003748975694179535,0.003511175513267517,-0.003921240568161011,-0.0005657672882080078
2025-09-20T02:28:32Z,0.07878501012082618,0.2266135900327843,0.46423243934086333,-0.1710534691810608,-0.3567231297492981,-0.9184167385101318,0.10094563374265038,0.0640692913165575,0.2327184343192633,0.965166949305362,0.00041976198554039,-0.04071689397096634,0.008759472519159317,0.006869465112686157,-0.009192138910293579,-0.006419479846954346
2025-09-20T02:28:32Z,0.07779771657804556,0.22669264899243585,0.4643854393136816,-0.1719837784767151,-0.3567582368850708,-0.918229341506958,0.10109386866036288,0.06360942276058557,0.23274286603142652,0.9651759788533155,0.0015160075854510069,-0.046025682240724564,0.004273628816008568,0.00831933319568634,-0.014053881168365479,-0.011587977409362793
2025-09-20T02:28:33Z,0.07693263288473887,0.22674617751017648,0.464360310318272,-0.172775998711586,-0.3568124771118164,-0.9180595278739929,0.10122121147146708,0.06319666852883768,0.23268729084400136,0.9652031360403899,-0.0027958552818745375,-0.04123014211654663,-0.0035604890435934067,0.009604468941688538,-0.01528981328010559,-0.015874624252319336
2025-09-20T02:28:33Z,0.07616709924295176,0.22661038177324835,0.46419982309865393,-0.17345257103443146,-0.3567279875278473,-0.9179648160934448,0.10124963311216184,0.06280385833315799,0.23257032866826072,0.9652540402638784,-0.004125787410885096,-0.03568236902356148,-0.007745077367872,0.007495090365409851,-0.013162732124328613,-0.017715513706207275
2025-09-20T02:28:33Z,0.07562458796964386,0.22647962709344654,0.46402195253048206,-0.17392204701900482,-0.3566521108150482,-0.9179054498672485,0.10125504116225445,0.06251836260023556,0.23245631874144615,0.9652994560194452,-0.004903604742139578,-0.02162734791636467,-0.010898944921791553,0.008755579590797424,-0.012151598930358887,-0.021378040313720703
2025-09-20T02:28:33Z,0.07539499114383943,0.22635357447734847,0.46376224804504057,-0.17409291863441467,-0.3565998375415802,-0.9178933501243591,0.1012288619734257,0.062380272531029665,0.23231867666488032,0.965344296232715,-0.005660315975546837,-0.007656728848814964,-0.00956691987812519,0.007026612758636475,-0.011206328868865967,-0.020269036293029785
2025-09-20T02:28:33Z,0.07527892614309865,0.22638958686006413,0.46392246607000404,-0.174222931265831,-0.35659441351890564,-0.917870819568634,0.10125476827074431,0.06233639744534098,0.23239032330715323,0.9653271623689629,0.003551330417394638,-0.00851826835423708,0.007663164287805557,0.004578724503517151,-0.009860962629318237,-0.015203297138214111
2025-09-20T02:28:33Z,0.07516284506865102,0.2264256087920827,0.46408266600324066,-0.17435294389724731,-0.35658901929855347,-0.9178482294082642,0.10128068828667008,0.06229251835578157,0.23246195437809256,0.9653100318622118,0.012762976810336113,-0.009379807859659195,0.024893248453736305,0.002130866050720215,-0.008515655994415283,-0.010137617588043213
2025-09-20T02:28:33Z,0.07482968948040619,0.22689265309804976,0.4645955075325891,-0.174743190407753,-0.356889009475708,-0.9176573753356934,0.1015293348101696,0.06221011143569296,0.2326949676944918,0.9652330981155306,0.029716873541474342,-0.016806652769446373,0.028270190581679344,0.0025569647550582886,-0.013978332281112671,-0.010241806507110596
2025-09-20T02:28:33Z,0.07442039406963956,0.22756592088915584,0.4651663573975129,-0.17521673440933228,-0.3573611378669739,-0.9173833131790161,0.10188480811459723,0.062117222580778446,0.23295299558770186,0.9651393911057498,0.03194227069616318,-0.011107159778475761,0.02969842217862606,0.0038671791553497314,-0.013265877962112427,-0.01310950517654419
2025-09-20T02:28:33Z,0.07399640811189738,0.2282244097174166,0.4657559989544261,-0.17570574581623077,-0.35781535506248474,-0.9171127080917358,0.10223431358734611,0.06201675870462136,0.2332190675807914,0.9650446326515064,0.026870321482419968,-0.015196122229099274,0.030394794419407845,0.0022616535425186157,-0.011371731758117676,-0.011686503887176514
2025-09-20T02:28:33Z,0.0736371894231428,0.22869346320969647,0.46626029798530044,-0.1761181354522705,-0.35811880230903625,-0.9169151186943054,0.10248737363521261,0.06192205016683584,0.2334462100794529,0.9649689296742973,0.016580786556005478,-0.008225257508456707,0.023568669334053993,0.002410709857940674,-0.012396752834320068,-0.013905167579650879
2025-09-20T02:28:33Z,0.07344913803601594,0.22898746810537648,0.466632612970847,-0.176350399851799,-0.3582956790924072,-0.916801393032074,0.10263994139920991,0.061883542343698625,0.23361754344782398,0.9649137245000908,0.009034475311636925,-0.0022175409831106663,0.014955592341721058,0.001996248960494995,-0.013697415590286255,-0.013523340225219727
2025-09-20T02:28:33Z,0.07344815601180282,0.22924396642454453,0.4668541078945818,-0.17638903856277466,-0.3584744334220886,-0.9167240858078003,0.1027571943330643,0.06192336039781333,0.23372551040702363,0.9648725679099909,0.011810910888016224,-0.0010769825894385576,0.007704231422394514,0.0011336654424667358,-0.015083640813827515,-0.0114976167678833
2025-09-20T02:28:33Z,0.07337233592650884,0.22956041385056491,0.4669962352611958,-0.17648673057556152,-0.35872599482536316,-0.9166068434715271,0.10291462485474381,0.06192978214717149,0.23379160008781058,0.964839379332978,0.01902802847325802,-0.0036846620496362448,0.0035189520567655563,0.0009412020444869995,-0.01711040735244751,-0.009382307529449463
2025-09-20T02:28:33Z,0.07336438141122673,0.2300191929837141,0.46688250654249835,-0.1764901578426361,-0.3591662645339966,-0.9164337515830994,0.10314085386940679,0.06197184395571498,0.23373839903199214,0.9648253064005082,0.022147569805383682,-0.0011596938129514456,-0.00031590438447892666,0.0012033730745315552,-0.017950892448425293,-0.012617886066436768
2025-09-20T02:28:33Z,0.07338775281095257,0.2304823402623689,0.4667360438482824,-0.17646047472953796,-0.35961824655532837,-0.9162622094154358,0.103366539863531,0.06202777634792921,0.23367100697268595,0.9648139032515606,0.02021893672645092,0.0022639327216893435,-0.006421063095331192,0.002570047974586487,-0.016171395778656006,-0.014063000679016113
2025-09-20T02:28:33Z,0.07358501953225381,0.2308545633869671,0.4664953723722661,-0.17625591158866882,-0.3600105047225952,-0.9161475300788879,0.10353089567248956,0.06215243884113583,0.23356676795900308,0.9648134985369342,0.012845886871218681,0.007307003252208233,-0.008846232667565346,0.0024226754903793335,-0.014738023281097412,-0.012335538864135742
2025-09-20T02:28:33Z,0.0737760672280636,0.23112208717909608,0.4663380785032577,-0.17606598138809204,-0.36028867959976196,-0.9160746932029724,0.10364279503511789,0.06226658412698035,0.2335019777146216,0.964809841424238,0.008471352979540825,0.005259496159851551,-0.0025567347183823586,0.001498386263847351,-0.01118972897529602,-0.009935140609741211
2025-09-20T02:28:33Z,0.07372437242900702,0.23153459110696362,0.4669993654237045,-0.1762167513370514,-0.3605036437511444,-0.9159611463546753,0.10382762679592838,0.062322432740993625,0.23382013662684856,0.964709302354155,0.011684289202094078,0.006766235455870628,0.010786918923258781,0.0021263957023620605,-0.011460870504379272,-0.010734260082244873
2025-09-20T02:28:33Z,0.07367240512767127,0.23194706497775255,0.46766077058725564,-0.17636768519878387,-0.3607184886932373,-0.9158474802970886,0.10401244031840066,0.06237827754834721,0.23413827140804944,0.9646086427994439,0.014897225424647331,0.008272974751889706,0.024130571633577347,0.002754583954811096,-0.01173219084739685,-0.01153343915939331
2025-09-20T02:28:33Z,0.07362013163050903,0.23235956019650697,0.46832222647178795,-0.1765187829732895,-0.36093321442604065,-0.9157337546348572,0.10419727073353584,0.062434110673594716,0.23445635978477855,0.9645078090525753,0.018110161647200584,0.009779714047908783,0.03747422620654106,0.0033829063177108765,-0.012003600597381592,-0.012332797050476074
2025-09-20T02:28:33Z,0.07356759334761712,0.2327719552317872,0.4689837406708723,-0.17666999995708466,-0.36114776134490967,-0.9156200289726257,0.1043820509269289,0.06248993393078061,0.2347743972678809,0.9644068541565876,0.021323097869753838,0.011286452412605286,0.050817880779504776,0.004011362791061401,-0.012275218963623047,-0.013132095336914062
2025-09-20T02:28:33Z,0.07357190909970605,0.23329188484662222,0.4699363081788325,-0.17681239545345306,-0.36138999462127686,-0.9154969453811646,0.10460296345321854,0.06260071237403877,0.2352361276070691,0.9642632252983157,0.023152854293584824,0.011997519060969353,0.045291464775800705,0.004360899329185486,-0.017188310623168945,-0.0138932466506958
2025-09-20T02:28:33Z,0.07366487827973099,0.2338227173742814,0.47066465066724505,-0.1768425703048706,-0.3616950511932373,-0.9153706431388855,0.1048256421304498,0.0627439363730954,0.23559436379044632,0.9641422677166352,0.020207347348332405,0.013502364978194237,0.02958364225924015,0.0039768218994140625,-0.019382864236831665,-0.013108909130096436
2025-09-20T02:28:33Z,0.07378165736965467,0.2342515465103049,0.47110036481639017,-0.17680755257606506,-0.36197760701179504,-0.915265679359436,0.10500534674930277,0.06287183410109454,0.23581232911892552,0.9640610578773212,0.015447258949279785,0.007789305876940489,0.010079056024551392,0.004057824611663818,-0.02054882049560547,-0.011208176612854004
2025-09-20T02:28:33Z,0.07396903954808313,0.23449905975714222,0.4711264633355558,-0.17664629220962524,-0.36219412088394165,-0.9152112007141113,0.10510198514049278,0.06299166953356149,0.235835783182477,0.9640370019643455,0.005722659640014172,0.010593454353511333,-0.005897713825106621,0.0043544769287109375,-0.01695379614830017,-0.012316584587097168
2025-09-20T02:28:33Z,0.07421294317985187,0.23446956302633,0.47088148304184274,-0.17638830840587616,-0.36222565174102783,-0.915248453617096,0.10506670446982316,0.06309301113628456,0.23573038498541396,0.9640600065831976,-0.007116273045539856,0.008559404872357845,-0.012797169387340546,0.002242371439933777,-0.013325095176696777,-0.009243607521057129
2025-09-20T02:28:33Z,0.07445112643484436,0.23430199979101393,0.4705222305463276,-0.17611591517925262,-0.3621600270271301,-0.9153268933296204,0.10496904589732164,0.06316993687612166,0.23556901461636143,0.9641049527324954,-0.0090695945546031,-0.00061776302754879,-0.016456136479973793,0.0014768242835998535,-0.014281928539276123,-0.00586313009262085
2025-09-20T02:28:33Z,0.07444974511846911,0.23410794083701036,0.47005809762062284,-0.17604750394821167,-0.362095445394516,-0.9153655767440796,0.10489011733022721,0.06312289624743908,0.23534435275764504,0.9641714752477841,-0.0054213739931583405,-0.010448914021253586,-0.02405676431953907,0.0012437403202056885,-0.016086548566818237,-0.0057356953620910645
2025-09-20T02:28:33Z,0.07418398003953042,0.2340267301520697,0.46957239344633867,-0.1762211173772812,-0.3621375262737274,-0.915315568447113,0.10489744324174265,0.06296007825767767,0.23509588165828715,0.9642420254957383,-0.0014819083735346794,-0.02109536901116371,-0.019208429381251335,0.00042960047721862793,-0.012489259243011475,-0.006443202495574951
2025-09-20T02:28:33Z,0.07393381171075122,0.23399074652094448,0.469254828456237,-0.17640498280525208,-0.3621803820133209,-0.9152631759643555,0.10491943721112436,0.06281872479625318,0.23492948675800177,0.9642894464494766,-0.0034837943967431784,-0.010447387583553791,-0.007450772449374199,0.0020072609186172485,-0.010929226875305176,-0.01457071304321289
2025-09-20T02:28:33Z,0.07401554458391442,0.23394943526128817,0.46925760436378566,-0.17632944881916046,-0.36214256286621094,-0.9152926802635193,0.104889791717341,0.06285360110353654,0.23493494023820777,0.964289043683899,-0.0007216990925371647,0.013814601115882397,0.006680640392005444,0.005105242133140564,-0.012512832880020142,-0.01833784580230713
2025-09-20T02:28:33Z,0.07438150146050132,0.2340744467344543,0.46937193297838764,-0.1760137379169464,-0.3622279465198517,-0.9153196811676025,0.10490359576169557,0.06305019787404023,0.23500979744912728,0.9642564783039059,0.009487776085734367,0.026805462315678596,0.0036413781344890594,0.0062087178230285645,-0.01688331365585327,-0.01735323667526245
2025-09-20T02:28:33Z,0.07495651054630047,0.23442023138355803,0.4694060828923447,-0.1755015254020691,-0.3625309467315674,-0.9152980446815491,0.10500200382597996,0.06336838211430272,0.23505797789254246,0.964213149342736,0.017826125025749207,0.026479436084628105,0.002572991419583559,0.004464462399482727,-0.01437842845916748,-0.014262855052947998
2025-09-20T02:28:33Z,0.07545459170443308,0.23481451343154078,0.46938292339950843,-0.1750531643629074,-0.3628910779953003,-0.9152411818504333,0.1051346856122467,0.06365194540842438,0.2350747806522081,0.9641758938518579,0.016841651871800423,0.02151023969054222,-0.0020167487673461437,0.0031107962131500244,-0.012140989303588867,-0.012174010276794434
2025-09-20T02:28:33Z,0.07565803223197043,0.23514231413743492,0.4692275342468356,-0.1748543679714203,-0.3632226884365082,-0.9151476621627808,0.10527409230007394,0.0637789589087214,0.23501208530162304,0.9641675791039119,0.015147220343351364,0.005822921171784401,-0.0052148643881082535,0.0024017691612243652,-0.010498523712158203,-0.007911324501037598
2025-09-20T02:28:33Z,0.07586155184646907,0.23547006301747705,0.4690720391755882,-0.17465552687644958,-0.3635542690753937,-0.9150539636611938,0.10541348169099843,0.06390596769684427,0.23494936188323678,0.9641592653729485,0.013452788814902306,-0.009864399209618568,-0.00841298047453165,0.0016926974058151245,-0.00885617733001709,-0.003648698329925537
2025-09-20T02:28:33Z,0.07568841871184845,0.23573005492239013,0.468813771050013,-0.17478518187999725,-0.3638491630554199,-0.9149119853973389,0.10556767022918029,0.06383828928564157,0.2348169333677812,0.9641791336118615,0.010847976431250572,-0.01610397920012474,-0.008656025864183903,0.0021138936281204224,-0.008334249258041382,-0.007229804992675781
2025-09-20T02:28:33Z,0.07541291194151573,0.2358965578043569,0.4687045575307728,-0.17502662539482117,-0.36402472853660583,-0.914795994758606,0.1056839361342972,0.06371852742407076,0.2347504944903205,0.9641905049589082,0.0065392423421144485,-0.015078571625053883,-0.0005668094381690025,0.00226515531539917,-0.006981849670410156,-0.010224699974060059
2025-09-20T02:28:33Z,0.07508481396462081,0.23603533955405803,0.46879218688417695,-0.17534269392490387,-0.3641286790370941,-0.91469407081604,0.10578671714050039,0.06358069179233551,0.23477604451429884,0.9641819973373719,0.004679910838603973,-0.012753196060657501,0.005414979066699743,0.0027290284633636475,-0.009409457445144653,-0.013635754585266113
2025-09-20T02:28:33Z,0.07484354568945797,0.23615942335647427,0.4689012361320516,-0.1755819320678711,-0.3642144203186035,-0.9146140217781067,0.10587152250447633,0.06348418200388763,0.23481639453029404,0.964169241715887,0.0007780403830111027,-0.004991602618247271,0.005626901052892208,0.004742026329040527,-0.012826919555664062,-0.016674816608428955
2025-09-20T02:28:33Z,0.07481210800196364,0.23615148843804332,0.46895381679300646,-0.1756177842617035,-0.3641948401927948,-0.9146149754524231,0.10586971298986178,0.06347091432207075,0.23484004809410147,0.9641645330341327,-0.0013802689500153065,0.0028696912340819836,-0.0028219064697623253,0.00440998375415802,-0.015561699867248535,-0.018694162368774414
2025-09-20T02:28:33Z,0.07494263308955451,0.2360780178552415,0.4687812844281007,-0.1754724085330963,-0.3641696572303772,-0.9146528840065002,0.10582437002139854,0.06351639432456237,0.23476345067182658,0.9641851965892746,-0.003561225486919284,-0.0019632712937891483,-0.007447344250977039,0.001776084303855896,-0.014976531267166138,-0.012842774391174316
2025-09-20T02:28:33Z,0.07491748365214891,0.2360497530156022,0.46862944720510585,-0.17547351121902466,-0.36418017745018005,-0.9146484732627869,0.10581848764821064,0.06349304030688763,0.234688795037747,0.9642055522741892,0.0027110378723591566,-0.007415815256536007,-0.0051719071343541145,0.000678524374961853,-0.013249486684799194,-0.008947551250457764
2025-09-20T02:28:33Z,0.07485900755920205,0.23621358683963917,0.46850272651542463,-0.17551381886005402,-0.36435744166374207,-0.914570152759552,0.10590852297202909,0.06347665980591212,0.23462532875369888,0.9642122006914123,0.014987552538514137,-0.002056034281849861,-0.00473270146176219,0.0030927956104278564,-0.017663151025772095,-0.01100468635559082
2025-09-20T02:28:33Z,0.07484218280299541,0.23668596641136302,0.4682887164663375,-0.17551226913928986,-0.36483263969421387,-0.9143809676170349,0.1061455139387116,0.06351058374312667,0.23452334587052742,0.9642086769989717,0.028308913111686707,-0.0023727298248559237,-0.00833679549396038,0.0034578442573547363,-0.017944365739822388,-0.010819673538208008
2025-09-20T02:28:33Z,0.07493519265496862,0.23731893775294877,0.46806462929255216,-0.1754133105278015,-0.36545440554618835,-0.914151668548584,0.10644753829730935,0.06361499810092613,0.23442303102610607,0.9641928765845553,0.03309313952922821,0.0014763087965548038,-0.003504196647554636,0.003817930817604065,-0.01394730806350708,-0.01239699125289917
2025-09-20T02:28:33Z,0.07499986876093773,0.2380053860550959,0.4679771364603964,-0.1753608137369156,-0.3660917580127716,-0.9139066338539124,0.10677438019251807,0.0637190026804881,0.23438729810516634,0.9641585391096151,0.029615335166454315,0.0025899987667798996,0.0007789148949086666,0.0031082183122634888,-0.010875880718231201,-0.01170337200164795
2025-09-20T02:28:33Z,0.07508148481102506,0.23859531299988143,0.46795015607833534,-0.17529867589473724,-0.366627961397171,-0.9137036204338074,0.10705067090880996,0.06382347977351702,0.23438121522991281,0.9641224818466395,0.023464925587177277,0.0012385859154164791,0.0021941261366009712,0.002979382872581482,-0.010318338871002197,-0.011577486991882324
2025-09-20T02:28:33Z,0.07507952599218265,0.23903270301703503,0.46795981464226494,-0.17531386017799377,-0.3670184314250946,-0.9135439395904541,0.10726188735839272,0.06387240397884887,0.23438764721137575,0.9640942518781042,0.013471645303070545,-0.002324500819668174,0.002026286209002137,0.002532780170440674,-0.009684324264526367,-0.009895861148834229
2025-09-20T02:28:33Z,0.07492678567953831,0.23919722941897958,0.4680364125817193,-0.1754685938358307,-0.3671480417251587,-0.9134621620178223,0.10735682219367176,0.06382145231685875,0.23441707888987878,0.9640799126354233,0.009291116148233414,-0.007215519435703754,0.0009454304818063974,0.0034435689449310303,-0.012592792510986328,-0.009812653064727783
2025-09-20T02:28:34Z,0.0747740453933064,0.23936173265656122,0.46811311201833494,-0.1756233125925064,-0.367277592420578,-0.9133803248405457,0.10745174427823762,0.06377051001183782,0.23444654040584828,0.9640655683602132,0.005110587924718857,-0.012106538750231266,-0.00013542512897402048,0.004354342818260193,-0.015501320362091064,-0.009729444980621338
2025-09-20T02:28:34Z,0.07451447934386987,0.23947550234699097,0.4681002743478466,-0.17586170136928558,-0.3673827648162842,-0.9132921695709229,0.10753753769518787,0.06365754352672774,0.2344268772222058,0.9640682473741254,0.0059043653309345245,-0.013206626288592815,0.0001424546935595572,0.005098670721054077,-0.015419065952301025,-0.011317551136016846
2025-09-20T02:28:34Z,0.07434622033327701,0.23961107929252617,0.4680813268420895,-0.1760164350271225,-0.3675089180469513,-0.9132115840911865,0.10762335438898547,0.06359072235610073,0.23440925190291664,0.9640673665772331,0.005105310119688511,-0.004137678071856499,0.002455569803714752,0.004869326949119568,-0.0135764479637146,-0.012271761894226074
2025-09-20T02:28:34Z,0.07424216974296295,0.23965105102378426,0.4681578507309699,-0.17612320184707642,-0.36752671003341675,-0.913183867931366,0.10765242627224686,0.06354919681798103,0.23444070038194137,0.9640592197327454,-0.0012097167782485485,0.0028913323767483234,0.003439720720052719,0.005845993757247925,-0.012805700302124023,-0.0127144455909729
2025-09-20T02:28:34Z,0.07434853964369864,0.23954140480779848,0.46818742759846793,-0.17602720856666565,-0.36742132902145386,-0.9132447838783264,0.10758604979483329,0.06358967965704798,0.23446022910063416,0.964059230708087,-0.01010848768055439,0.0019098721677437425,-5.21722249686718e-05,0.004563763737678528,-0.012590467929840088,-0.010826945304870605
2025-09-20T02:28:34Z,0.0743012720289439,0.2392777536601205,0.46825407990226375,-0.17607246339321136,-0.3671688735485077,-0.9133375883102417,0.10746211456425271,0.06354070851425207,0.23448873928411448,0.9640693316345155,-0.019265692681074142,-0.0007519506616517901,0.000573830446228385,0.0031477808952331543,-0.011890262365341187,-0.00905996561050415
2025-09-20T02:28:34Z,0.07425781410770702,0.23880675947262878,0.46836642677959256,-0.1761149913072586,-0.36671945452690125,-0.9135099053382874,0.10723611777004977,0.06347258599296306,0.23453861747484264,0.964086899118736,-0.029829975217580795,-0.003770886454731226,0.006308162584900856,0.0017998367547988892,-0.011670559644699097,-0.007899999618530273
2025-09-20T02:28:34Z,0.07408322607585165,0.23811240393541094,0.46865759802891876,-0.1762961447238922,-0.36602696776390076,-0.9137526750564575,0.10691195274337102,0.06332555648330722,0.234666799204443,0.9641012708239475,-0.040808871388435364,-0.00572250597178936,0.014065699651837349,0.0012374073266983032,-0.012056231498718262,-0.009642243385314941
2025-09-20T02:28:34Z,0.07393304585388676,0.23716521256741602,0.4690504157500811,-0.17646245658397675,-0.36508306860923767,-0.9140980839729309,0.10645959597360156,0.06316697745145723,0.23484425985652854,0.9641185105439334,-0.0591999888420105,0.003202080726623535,0.017637619748711586,0.0016709566116333008,-0.013228893280029297,-0.012211918830871582
2025-09-20T02:28:34Z,0.07405657533204907,0.23571719702555735,0.4695052219108848,-0.17637374997138977,-0.3636738359928131,-0.9146767854690552,0.1057312214723013,0.06308669197042764,0.2350640410366353,0.9641503314829353,-0.09674040228128433,0.012322275899350643,0.01008716132491827,0.002013280987739563,-0.015113860368728638,-0.014393925666809082
2025-09-20T02:28:34Z,0.07436414373625752,0.23311628399246623,0.46988007443173885,-0.17607450485229492,-0.3612452745437622,-0.9156962633132935,0.10442670953315075,0.06295981791318077,0.2352496645286573,0.9642556079274495,-0.1758423149585724,0.029647208750247955,-0.006105215288698673,0.0030585676431655884,-0.010776430368423462,-0.015573620796203613
2025-09-20T02:28:34Z,0.07527322757302969,0.22822484160420742,0.47000930081834247,-0.17512787878513336,-0.3568075895309448,-0.9176157116889954,0.10195218423110615,0.06284984839883657,0.23533599136745315,0.9645065080755344,-0.3303676247596741,0.06702902913093567,-0.017667479813098907,0.004912912845611572,0.0027820467948913574,-0.01746302843093872
2025-09-20T02:28:34Z,0.0771263116136244,0.2192802468942382,0.4701489580415333,-0.1732034534215927,-0.3486935794353485,-0.9210935831069946,0.09740626777576511,0.06273491565041106,0.2354472718186198,0.9649565485485926,-0.5708327889442444,0.11967769265174866,-0.03771359473466873,0.00741519033908844,0.008842825889587402,-0.020064175128936768
2025-09-20T02:28:34Z,0.07995652173043505,0.20514222523829917,0.47022371107459965,-0.17021974921226501,-0.3358462452888489,-0.9264084100723267,0.09023323129565747,0.062496930934829185,0.23552199200191956,0.965650898174657,-0.8425406217575073,0.16550560295581818,-0.06232912838459015,0.0044869184494018555,0.00909954309463501,-0.021480023860931396
2025-09-20T02:28:34Z,0.0849213405499881,0.1832173702296929,0.47103481156057336,-0.1651250720024109,-0.3156243562698364,-0.9344062209129333,0.0790114631493018,0.062430403355612826,0.2359341854867852,0.9665375879979425,-1.061959981918335,0.2534715235233307,-0.04123528301715851,0.004794508218765259,0.0030415356159210205,-0.021601319313049316
2025-09-20T02:28:34Z,0.08988528268557973,0.1612967653109581,0.47195308241178835,-0.1600112020969391,-0.2952272295951843,-0.941932737827301,0.06777968272900427,0.06235596191466997,0.23631643742543634,0.9673016424129421,-1.281379222869873,0.341437429189682,-0.020141441375017166,0.005082905292510986,-0.0031917989253997803,-0.022193968296051025
2025-09-20T02:28:34Z,0.09639881986043446,0.1349441618864861,0.4741793291755388,-0.15346400439739227,-0.27024543285369873,-0.9504820704460144,0.05416803937817818,0.06254342308095577,0.23722560976762228,0.9679248001739613,-1.3729294538497925,0.3600772023200989,-0.015603337436914444,-0.003918305039405823,-0.03728631138801575,-0.007024109363555908
2025-09-20T02:28:34Z,0.10339604019104394,0.10740491494632314,0.47620935549001264,-0.14635969698429108,-0.2440057098865509,-0.9586657881736755,0.039922008263852594,0.0627879961712551,0.23790197179451036,0.9684352146087654,-1.365902304649353,0.3366747498512268,-0.047716446220874786,-0.01214250922203064,-0.06932410597801208,0.0037273764610290527
2025-09-20T02:28:34Z,0.10950346071215365,0.08121495209135417,0.47768474584729803,-0.14004367589950562,-0.21898740530014038,-0.9656253457069397,0.02644886976579012,0.06271685548885889,0.23818729453902754,0.968831280875845,-1.2304797172546387,0.28039953112602234,-0.06518889963626862,-0.017151638865470886,-0.08555099368095398,0.008827149868011475
2025-09-20T02:28:34Z,0.11421603396683833,0.05901066962713675,0.4787413983606278,-0.1351107954978943,-0.19770416617393494,-0.9709058403968811,0.015086614501006953,0.062408464597118254,0.23823757465094572,0.9690823840560966,-0.9665560722351074,0.19940656423568726,-0.08431271463632584,-0.017905116081237793,-0.09943777322769165,0.012423217296600342
2025-09-20T02:28:34Z,0.11704096843256145,0.04239682657288903,0.4788455720173342,-0.13201376795768738,-0.1818825602531433,-0.9744183421134949,0.006690314850096837,0.061824022269673144,0.2378871315516674,0.96930025336474,-0.6815345287322998,0.060600921511650085,-0.0722898468375206,-0.01868237555027008,-0.06742164492607117,0.0239066481590271
2025-09-20T02:28:34Z,0.11752966226964325,0.031146570202858444,0.47914329033283154,-0.1313462108373642,-0.17108437418937683,-0.9764621257781982,0.00116739740653039,0.06073551719470262,0.2377366617019115,0.9694283617935872,-0.4346342086791992,0.0005306117236614227,-0.029540155082941055,0.0028567463159561157,-0.04399538040161133,-0.00018852949142456055
2025-09-20T02:28:34Z,0.11710496248362497,0.02483467323790072,0.4792784853149333,-0.13165582716464996,-0.1650243103504181,-0.977462887763977,-0.001847032348985284,0.05978453708144224,0.23763301739272738,0.9695118248704273,-0.19596441090106964,-0.0316791906952858,-0.03994208574295044,0.018318645656108856,-0.04841083288192749,-0.019112110137939453
2025-09-20T02:28:34Z,0.11633760222644661,0.023127715913484944,0.4784607039720966,-0.1322590410709381,-0.16359347105026245,-0.9776219725608826,-0.0025594157063152617,0.059211963558473336,0.237191480452416,0.9696534281446265,0.03235176205635071,-0.044115565717220306,-0.059973035007715225,0.02427719533443451,-0.03298068046569824,-0.02323514223098755
2025-09-20T02:28:34Z,0.11532499684198474,0.025535065581547032,0.4773512358401193,-0.13313931226730347,-0.1661650836467743,-0.9770686030387878,-0.0012390273597076983,0.05900561531863437,0.2367187314675713,0.9697841227712984,0.21434837579727173,-0.061789605766534805,-0.00928107276558876,0.01778905838727951,0.015275955200195312,-0.01446378231048584
2025-09-20T02:28:34Z,0.11397770529465473,0.031171519490665073,0.47733429937480953,-0.1345614641904831,-0.17155082523822784,-0.9759423732757568,0.001655089744963241,0.059015210522798005,0.23685782285812348,0.9697489659319164,0.33349424600601196,-0.07545784115791321,0.08494538068771362,0.019267693161964417,0.0532897412776947,-0.010207831859588623
2025-09-20T02:28:34Z,0.11248670969087102,0.0389131527812574,0.47911696993792713,-0.1364174634218216,-0.17849738895893097,-0.9744377732276917,0.005534363278230818,0.0592070069012162,0.23791613000388878,0.9694637380611747,0.41664284467697144,-0.053105223923921585,0.1702272593975067,0.030358515679836273,0.0542135015130043,-0.02353525161743164
2025-09-20T02:28:34Z,0.1116339671946084,0.048438077449899655,0.4819121792149699,-0.13783040642738342,-0.18688169121742249,-0.9726654291152954,0.010171579841556953,0.05993026583837118,0.23950165163704426,0.9689912182320514,0.49155011773109436,-0.033776916563510895,0.20340806245803833,0.034528106451034546,0.03254100680351257,-0.027830123901367188
2025-09-20T02:28:34Z,0.11102878928168897,0.05928631633785671,0.4847702553475282,-0.1390436291694641,-0.19648945331573486,-0.9705971479415894,0.015416299274317369,0.060943178578336435,0.24114012139848814,0.9684522971095817,0.5674086809158325,-0.033164650201797485,0.2024516761302948,0.029539532959461212,0.017616823315620422,-0.025771617889404297
2025-09-20T02:28:34Z,0.11010309967219341,0.07206823548655973,0.4878838383456532,-0.14065223932266235,-0.20784206688404083,-0.9679972529411316,0.021625500463185572,0.0620482579138415,0.24293083861685558,0.9678156596463159,0.6263325810432434,-0.04849954694509506,0.2331574708223343,0.01879855990409851,0.023228809237480164,-0.01677083969116211
2025-09-20T02:28:34Z,0.10913653194607888,0.08484720579529852,0.49101237322856733,-0.14230990409851074,-0.21915432810783386,-0.9652560949325562,0.02783376432143808,0.06315064028169491,0.24471099709112754,0.9671370052897584,0.6852564811706543,-0.06383444368839264,0.2638632655143738,0.008106604218482971,0.028800413012504578,-0.007911264896392822
2025-09-20T02:28:34Z,0.10751455594740184,0.09931002658225016,0.4951548984989757,-0.1447829157114029,-0.23176634311676025,-0.9619367122650146,0.03490071316165858,0.06417453551290137,0.2469859840091215,0.9662617006824662,0.7378836274147034,-0.08667896687984467,0.3043290972709656,0.004358753561973572,0.020238488912582397,-0.0033539533615112305
2025-09-20T02:28:34Z,0.10511763399120107,0.11493036340357106,0.4997886371827924,-0.14809651672840118,-0.24529455602169037,-0.958069920539856,0.04260229487474735,0.06500258794669196,0.2494759316681409,0.9652572631114283,0.7923718690872192,-0.11607450246810913,0.31045278906822205,0.00021722912788391113,-0.001290440559387207,-0.004353642463684082
2025-09-20T02:28:34Z,0.10198904472859363,0.13153896500734324,0.5041357276752193,-0.15209336578845978,-0.2597571015357971,-0.9536214470863342,0.05087704773712039,0.06562514482715986,0.25178840773239825,0.9642134368847681,0.8254714012145996,-0.1538526564836502,0.28270649909973145,-0.002886444330215454,-0.013097673654556274,-0.006735801696777344
2025-09-20T02:28:34Z,0.0983728313537386,0.148237557928476,0.507980803864712,-0.15648095309734344,-0.2743573486804962,-0.9488106966018677,0.0592684202600421,0.06604268680752028,0.253799426628636,0.9631778352282109,0.8099960088729858,-0.15756100416183472,0.25707292556762695,-1.8343329429626465e-05,-0.013125568628311157,-0.01376265287399292
2025-09-20T02:28:34Z,0.09473549862390686,0.1643197099749896,0.5112296586581865,-0.16077984869480133,-0.28846073150634766,-0.9438962936401367,0.06738024495876477,0.06638369260767538,0.25546441232787664,0.9621803876349571,0.7750710248947144,-0.1646636724472046,0.21411272883415222,-0.0027831345796585083,-0.019823312759399414,-0.010994255542755127
2025-09-20T02:28:34Z,0.09085037069052186,0.17962858008773314,0.5136179536698932,-0.165163055062294,-0.3019924759864807,-0.9388938546180725,0.07517529687121162,0.06650160974079782,0.25665013125173414,0.9612788657030759,0.7344024777412415,-0.18749557435512543,0.16143080592155457,-0.006226286292076111,-0.02660346031188965,-0.006582915782928467
2025-09-20T02:28:34Z,0.08674655833385295,0.19387668440017838,0.5150881271366587,-0.16958360373973846,-0.3147098422050476,-0.9339160323143005,0.08251425368606789,0.06636172889981812,0.2573303681463177,0.9605044186527791,0.6809419393539429,-0.19293630123138428,0.11477811634540558,-0.004991739988327026,-0.02736222743988037,-0.008281826972961426
2025-09-20T02:28:34Z,0.08289565129248488,0.20701501841498432,0.515797834907206,-0.17361819744110107,-0.32653966546058655,-0.9291009306907654,0.08930822550646023,0.06618094200748446,0.2576062695553819,0.959834993174645,0.6255413293838501,-0.18406009674072266,0.07134389877319336,-0.002580106258392334,-0.02503180503845215,-0.011629819869995117
2025-09-20T02:28:34Z,0.07937505467782664,0.21892489813202098,0.5159621012691764,-0.17722253501415253,-0.33733245730400085,-0.924553394317627,0.09548340199104888,0.0659838136375555,0.2575933142301719,0.9592574504668808,0.5629571080207825,-0.16080127656459808,0.03942234069108963,-0.0004260838031768799,-0.022424697875976562,-0.013936936855316162
2025-09-20T02:28:34Z,0.0764858299352306,0.22952116904126948,0.5156027710433608,-0.18012425303459167,-0.34701788425445557,-0.9203987717628479,0.1009599627076203,0.06590017593522805,0.2573263708850868,0.9587739752678572,0.49340730905532837,-0.1407596915960312,0.014465125277638435,-0.0007978081703186035,-0.020984292030334473,-0.011668741703033447
2025-09-20T02:28:34Z,0.07401382772715875,0.23872446122170968,0.5148574505798741,-0.1825428009033203,-0.35550329089164734,-0.9166763424873352,0.10572363744289448,0.06582084010458833,0.2568708153288144,0.9583880828980388,0.43125858902931213,-0.12165050208568573,-0.01795286126434803,-0.0008082091808319092,-0.02333170175552368,-0.01282501220703125
2025-09-20T02:28:34Z,0.07231353395957582,0.2461565957505208,0.5133872923845496,-0.18410584330558777,-0.36254337430000305,-0.913601279258728,0.10955945473821029,0.065848352309949,0.2560912022755549,0.9581640036922585,0.38173267245292664,-0.10823851823806763,-0.041244883090257645,-0.0009971708059310913,-0.023437321186065674,-0.012217044830322266
2025-09-20T02:28:34Z,0.07062130043775106,0.25359113595679356,0.5119273743814564,-0.1856563240289688,-0.3695615231990814,-0.9104702472686768,0.11339358733640201,0.06587485153515296,0.2553076434430186,0.9579251861122178,0.3322067856788635,-0.09482653439044952,-0.06453689932823181,-0.001198694109916687,-0.023564845323562622,-0.011665105819702148
2025-09-20T02:28:34Z,0.06921101298619059,0.2591965636324892,0.5102887879518769,-0.18687359988689423,-0.374968022108078,-0.9080073237419128,0.11631821116957115,0.06579543109100656,0.25444535816317093,0.9578093999584093,0.28219833970069885,-0.08966819941997528,-0.05247960984706879,-0.0019235014915466309,-0.014863789081573486,-0.009617865085601807
2025-09-20T02:28:34Z,0.06780813174518996,0.2648042157858633,0.5086559129483039,-0.18807990849018097,-0.38036179542541504,-0.9055113792419434,0.11924175095100586,0.06571540151693926,0.2535806956623219,0.95768469083974,0.2321898639202118,-0.08450986444950104,-0.04042232036590576,-0.0026592910289764404,-0.006175428628921509,-0.007603645324707031
2025-09-20T02:28:34Z,0.06668552651072993,0.26893759833786446,0.507687039347815,-0.18907621502876282,-0.38427260518074036,-0.9036508202552795,0.12139950713981915,0.06562522649490687,0.2530468254139655,0.9575609883602311,0.17546452581882477,-0.06247210130095482,-0.01798287406563759,0.0014579594135284424,-0.006455093622207642,-0.012200713157653809
2025-09-20T02:28:34Z,0.06577421059190845,0.27191403344559,0.507276810465302,-0.18992191553115845,-0.3870154321193695,-0.9023019075393677,0.12295650338633575,0.06552741447779296,0.25279168558198034,0.9574364067939064,0.12775106728076935,-0.04259338229894638,-0.002598952502012253,0.0017090141773223877,-0.010435670614242554,-0.011284172534942627
2025-09-20T02:28:34Z,0.06505613798811256,0.2741366958663171,0.5071710924938091,-0.19061213731765747,-0.3890132009983063,-0.9012967348098755,0.12411715630421305,0.06544846077433732,0.2526936587487398,0.9573178892737397,0.09218059480190277,-0.026969311758875847,0.010351445525884628,5.416572093963623e-05,-0.015043795108795166,-0.011135756969451904
2025-09-20T02:28:34Z,0.06461921338453915,0.2757470894953977,0.5072861442519253,-0.1910613626241684,-0.3904135823249817,-0.9005957841873169,0.12494117569123905,0.06544305184764851,0.25271887387184566,0.9572044156333943,0.07030975818634033,-0.015316895209252834,0.010831685736775398,-0.0005732178688049316,-0.021265655755996704,-0.009360253810882568
2025-09-20T02:28:35Z,0.0643860419324814,0.27698643750871726,0.507470139420791,-0.19132639467716217,-0.39146777987480164,-0.9000818133354187,0.12555912240684808,0.06549427822328048,0.2527900687419571,0.9571012709471651,0.047147929668426514,-0.00913530308753252,0.015077471733093262,-0.0020627081394195557,-0.020308077335357666,-0.006959497928619385
2025-09-20T02:28:35Z,0.06415516112926273,0.2776415239155392,0.5077642522578251,-0.19158877432346344,-0.3919776380062103,-0.8998040556907654,0.1258928911610647,0.06548228739973865,0.2529150245948069,0.9570252335865064,0.020302074030041695,-0.006594846956431866,0.01704263500869274,-0.0011132806539535522,-0.019103974103927612,-0.006463289260864258
2025-09-20T02:28:35Z,0.0640971900649089,0.2778405619641502,0.5080493805738233,-0.1916828602552414,-0.3920856714248657,-0.8997369408607483,0.12598634945699136,0.06549682458667651,0.25304740797906716,0.9569769416149787,-0.008837427943944931,0.005629438906908035,0.011608712375164032,0.0017526894807815552,-0.02115541696548462,-0.010358214378356934
2025-09-20T02:28:35Z,0.06421664947889656,0.2775457720367951,0.5082830221861623,-0.19159817695617676,-0.39176860451698303,-0.899893045425415,0.12582220555364393,0.06553266453453176,0.2531673380073584,0.9569642655635392,-0.021234946325421333,0.008381552062928677,0.0025780489668250084,0.0012034028768539429,-0.025973767042160034,-0.0074881911277771
2025-09-20T02:28:35Z,0.06435320778256758,0.2771374502720791,0.5081737244846539,-0.19145087897777557,-0.39143308997154236,-0.9000703692436218,0.1256126639811396,0.06554120397677943,0.25312441532281615,0.9570026046371951,-0.020566295832395554,0.0038673500530421734,-0.01125783659517765,0.00014181435108184814,-0.029508858919143677,-0.005647003650665283
2025-09-20T02:28:35Z,0.0644087752846775,0.2768275457229845,0.5078660506027168,-0.1913532167673111,-0.3912322223186493,-0.9001784920692444,0.12546707068669985,0.06551059943883981,0.2529812617663755,0.9570616777499661,-0.011938690207898617,-0.0025393604300916195,-0.017690353095531464,-0.0014060139656066895,-0.02620154619216919,-0.005261123180389404
2025-09-20T02:28:35Z,0.06433807746487581,0.2766596883827283,0.5076050975203761,-0.19137883186340332,-0.3911459743976593,-0.9002104997634888,0.12540403845128126,0.06543989327722899,0.2528522633395694,0.9571088812393879,-0.008657392114400864,-0.012855937704443932,-0.013202551752328873,-0.0003957599401473999,-0.018244057893753052,-0.004771590232849121
2025-09-20T02:28:35Z,0.06418049319932502,0.2764318911695948,0.5074437332722666,-0.19149401783943176,-0.3909827172756195,-0.9002569317817688,0.1253199725887848,0.0653265577146917,0.2527656145535734,0.9571504297301777,-0.01722525805234909,0.003143502399325371,-0.0016194796189665794,0.0019370019435882568,-0.013015389442443848,-0.012913763523101807
2025-09-20T02:28:35Z,0.06450000724167332,0.2760402590811993,0.5075006846858094,-0.19120387732982635,-0.39062198996543884,-0.9004751443862915,0.12508986760069576,0.0654352184537523,0.25281360640887474,0.9571603954331127,-0.02741844207048416,0.02503861114382744,0.003170568495988846,0.0065606385469436646,-0.014568418264389038,-0.01607900857925415
2025-09-20T02:28:35Z,0.06513160020380862,0.27545937665229275,0.5074176143837491,-0.19060958921909332,-0.3901270031929016,-0.9008156657218933,0.12473409738185914,0.06566137615912122,0.2528142824155545,0.9571911833813994,-0.032998159527778625,0.02792547084391117,-0.0011639823205769062,0.006613567471504211,-0.014039427042007446,-0.01403266191482544
2025-09-20T02:28:35Z,0.06576304479325978,0.27487839604353564,0.5073349077964958,-0.19001513719558716,-0.3896317183971405,-0.9011555910110474,0.12437828366717318,0.06588751877562515,0.2528149021316964,0.9572217914345631,-0.03857788071036339,0.030812328681349754,-0.005498533137142658,0.006666302680969238,-0.013510853052139282,-0.011986970901489258
2025-09-20T02:28:35Z,0.06630395694991517,0.2739570194336725,0.5073844834966725,-0.18951033055782318,-0.3888026773929596,-0.9016198515892029,0.12386623080517684,0.06603703173936318,0.2528734219186657,0.9572624303848482,-0.04979052022099495,0.02662126161158085,0.0020036506466567516,0.0046577900648117065,-0.009305447340011597,-0.009670913219451904
2025-09-20T02:28:35Z,0.06687825420482764,0.27294530163014347,0.5075140862879964,-0.1889830231666565,-0.38787394762039185,-0.9021303653717041,0.12330391873067072,0.06619642186973698,0.252972090468688,0.957297949825934,-0.05592285469174385,0.025606047362089157,0.00748044578358531,0.004873499274253845,-0.008016854524612427,-0.0066841840744018555
2025-09-20T02:28:35Z,0.0671408429178008,0.2719249389803636,0.507830505342852,-0.18876054883003235,-0.38689231872558594,-0.9025983214378357,0.12277065608246432,0.0662169701056984,0.2531407077645682,0.95732045295404,-0.04767318069934845,0.013245146721601486,0.012870673090219498,0.0025362223386764526,-0.011191636323928833,-0.0038602352142333984
2025-09-20T02:28:35Z,0.06714946833718605,0.2710526679449952,0.5082362154702375,-0.18878263235092163,-0.38602036237716675,-0.9029669761657715,0.1223376199813779,0.0661393479696447,0.253336217904459,0.9573295399387431,-0.04072544723749161,0.0007812948897480965,0.01770862564444542,0.0017519891262054443,-0.009822845458984375,-0.003966033458709717
2025-09-20T02:28:35Z,0.06702624750957045,0.27032530203859056,0.5087029319633307,-0.18893548846244812,-0.38526225090026855,-0.903258740901947,0.12198881401534287,0.06601987399931601,0.25355270618521714,0.9573250861723732,-0.035082388669252396,-0.005708407144993544,0.01660824939608574,0.0007487237453460693,-0.012092143297195435,-0.008535623550415039
2025-09-20T02:28:35Z,0.06686855823191129,0.26972606317143255,0.5091320602243019,-0.18911795318126678,-0.38462671637535095,-0.9034913778305054,0.12170714712395797,0.0658971495044065,0.25374903045911695,0.9573173977634577,-0.03434992954134941,-0.0035840983036905527,0.022447621449828148,0.0018111169338226318,-0.011429667472839355,-0.011836349964141846
2025-09-20T02:28:35Z,0.06665456643316565,0.26906865922983,0.5097328590608298,-0.1893720030784607,-0.3838980197906494,-0.903748095035553,0.1213991300688369,0.0657506376040144,0.2540242003667826,0.9572935802552524,-0.03092731349170208,-0.0027932878583669662,0.025063877925276756,0.0012489557266235352,-0.013243764638900757,-0.014249444007873535
2025-09-20T02:28:35Z,0.066502459013458,0.26851820548619965,0.5101999692659839,-0.18955568969249725,-0.38329631090164185,-0.9039649367332458,0.12113902441005239,0.0656385868780919,0.2542390680834132,0.9572771811754899,-0.029304971918463707,0.0016879714094102383,0.015733424574136734,0.0013676434755325317,-0.016600459814071655,-0.016445159912109375
2025-09-20T02:28:35Z,0.06664952557782462,0.26801464206293807,0.5104412952415818,-0.1894409954547882,-0.3827904164791107,-0.9042032957077026,0.12087081449752249,0.06566172199702242,0.25436393647936917,0.9572763071987342,-0.02696545235812664,0.011624766513705254,0.0064805643633008,0.0026805251836776733,-0.01678246259689331,-0.01750558614730835
2025-09-20T02:28:35Z,0.06685770342252767,0.267573795943397,0.5105045653302943,-0.18924961984157562,-0.38238298892974854,-0.9044157266616821,0.12063075663653122,0.06571101545273036,0.2544071660368186,0.9572916935708281,-0.02311832830309868,0.014270437881350517,0.0018494329415261745,-0.0013497471809387207,-0.015754401683807373,-0.013756871223449707
2025-09-20T02:28:35Z,0.06706285886129072,0.26726808133502294,0.5105990298617026,-0.18906840682029724,-0.38208824396133423,-0.9045782089233398,0.12045487849966306,0.06577733384414834,0.25446498283263014,0.9572939158741703,-0.008867694064974785,0.013690425083041191,0.0018727458082139492,-5.605816841125488e-05,-0.017596185207366943,-0.00903177261352539
