timestamp,attitude_roll,attitude_pitch,attitude_yaw,gravity_x,gravity_y,gravity_z,quaternion_x,quaternion_y,quaternion_z,quaternion_w,rotation_rate_x,rotation_rate_y,rotation_rate_z,user_acceleration_x,user_acceleration_y,user_acceleration_z
2025-09-20T02:28:40Z,0.059387766797576305,0.26394205025889184,0.503824594584602,-0.19504790008068085,-0.3807535469532013,-0.9038711786270142,0.12004289911665923,0.06128717791671427,0.25076348306979823,0.9586195089268945,0.007123297080397606,-0.0017188997007906437,-0.006151936016976833,0.004689574241638184,-0.0175151526927948,-0.008314013481140137
2025-09-20T02:28:40Z,0.05926941346226705,0.2641193602387584,0.5037504140151274,-0.19514915347099304,-0.38092923164367676,-0.9037752747535706,0.12014516840463701,0.06124755454013925,0.2507204374309494,0.9586204905198998,0.004051652736961842,-0.009633485227823257,0.001528862863779068,0.004306033253669739,-0.012732714414596558,-0.00660330057144165
2025-09-20T02:28:40Z,0.05905674637117961,0.26420925284515223,0.503801965016378,-0.19535012543201447,-0.3809969425201416,-0.9037032723426819,0.12021342499475812,0.061159649085712,0.25073216863271347,0.9586144780013807,-0.0027442616410553455,-0.007592748384922743,0.009310318157076836,0.004456415772438049,-0.011518031358718872,-0.009550690650939941
2025-09-20T02:28:40Z,0.05894516117292677,0.2641362323381298,0.5041470296946821,-0.19549456238746643,-0.3808491826057434,-0.9037343263626099,0.12018180184243513,0.061118023519346185,0.25089101899387267,0.9585795225404828,-0.007705397438257933,0.004976992961019278,0.018074363470077515,0.00467798113822937,-0.014434456825256348,-0.012456238269805908
2025-09-20T02:28:40Z,0.059221857302681084,0.2639941798075456,0.5044182933388712,-0.19527684152126312,-0.3806576132774353,-0.9038621187210083,0.12007056024948819,0.061249639370160716,0.251037963381081,0.9585466094931608,-0.008119252510368824,0.02144332230091095,0.009024285711348057,0.0067078471183776855,-0.020593613386154175,-0.017113804817199707
2025-09-20T02:28:40Z,0.059641820264180946,0.2638554546885569,0.5045651745780152,-0.19491331279277802,-0.3804987967014313,-0.9040074348449707,0.11994671299352501,0.061442841127598895,0.2511338651812357,0.9585245924891554,-0.009493432007730007,0.024133838713169098,0.005539347417652607,0.005154892802238464,-0.016366183757781982,-0.014068186283111572
2025-09-20T02:28:40Z,0.060116718530957146,0.26361663848081407,0.5047174863815884,-0.1944984495639801,-0.3802495300769806,-0.9042016863822937,0.11976769230100463,0.06165048346124167,0.2512358066291371,0.958506938919727,-0.015070086345076561,0.01968298852443695,0.00879625603556633,0.0031763166189193726,-0.012037128210067749,-0.011588752269744873
2025-09-20T02:28:40Z,0.06034794008589537,0.26335191904637295,0.5050198626423374,-0.1943228393793106,-0.37994110584259033,-0.904369056224823,0.11960218538043867,0.061747144957273674,0.25139507973868513,0.9584795838623941,-0.013580177910625935,0.012590818107128143,0.013633230701088905,0.0022666901350021362,-0.010081768035888672,-0.008912324905395508
2025-09-20T02:28:40Z,0.060398856173598144,0.26315190631963714,0.5053132563439295,-0.19431054592132568,-0.3796924650669098,-0.9044761061668396,0.1194906740243147,0.061764702553330414,0.2515391103670473,0.9584545645493184,-0.008278478868305683,-0.0006212908774614334,0.013687183149158955,0.0018591731786727905,-0.011994332075119019,-0.006165921688079834
2025-09-20T02:28:40Z,0.06028914617434258,0.26307382966298976,0.5055927414751805,-0.19444452226161957,-0.3795558214187622,-0.904504656791687,0.11945835245659694,0.0617192971845167,0.2516666358749012,0.9584280646834746,-0.00437777116894722,-0.007057182490825653,0.01335143856704235,0.002661868929862976,-0.011801332235336304,-0.008190929889678955
2025-09-20T02:28:40Z,0.06009608450843655,0.26306702733201,0.5059752296509117,-0.1946689337491989,-0.379457950592041,-0.9044974446296692,0.119467589891321,0.06164879590732227,0.25183840369536603,0.9583863460148927,-0.003080968977883458,-0.005547340493649244,0.013219461776316166,0.0026406198740005493,-0.012981206178665161,-0.009732663631439209
2025-09-20T02:28:40Z,0.059903040138934015,0.2630601643489833,0.5063576860475467,-0.19489331543445587,-0.37936002016067505,-0.9044902324676514,0.1194768243783365,0.06157829493880668,0.2520101417224605,0.9583446297184658,-0.00178416701965034,-0.0040374984964728355,0.013087484985589981,0.0026193559169769287,-0.014161080121994019,-0.011274337768554688
2025-09-20T02:28:40Z,0.0597099874692643,0.26305321491787464,0.5067401404648971,-0.19511765241622925,-0.3792620003223419,-0.9044829607009888,0.11948605090474362,0.06150778740025993,0.25218187565784467,0.9583028529945613,-0.0004873649450019002,-0.002527656964957714,0.012955507263541222,0.0025980323553085327,-0.015341073274612427,-0.012816071510314941
2025-09-20T02:28:40Z,0.05962427753872193,0.26311007978314205,0.5069847839160432,-0.19522835314273834,-0.37925392389297485,-0.904462456703186,0.11951663909936658,0.06148829255174668,0.25229385022194045,0.9582708284241617,0.0010798570001497865,-0.00215481361374259,0.008690904825925827,0.002266332507133484,-0.015979677438735962,-0.014972567558288574
2025-09-20T02:28:40Z,0.05962082788699264,0.26319836846270883,0.5070912074486723,-0.1952473223209381,-0.3793070316314697,-0.9044361114501953,0.11955619264434023,0.06150380770820033,0.2523444513147345,0.9582515495603783,0.0018311880994588137,0.0026226677000522614,0.0034110620617866516,0.0030980855226516724,-0.015124768018722534,-0.015104413032531738
2025-09-20T02:28:40Z,0.059633653040058875,0.2632928770707482,0.5071702785058471,-0.19524817168712616,-0.3793722689151764,-0.9044085741043091,0.11959751427952343,0.06152624486784832,0.2523828946382782,0.9582348496311868,0.0025014234706759453,0.0010811574757099152,0.004830980207771063,0.0015097856521606445,-0.012708872556686401,-0.010967493057250977
2025-09-20T02:28:40Z,0.05959511806784944,0.2634085270730484,0.5073844989516255,-0.19531354308128357,-0.3794238567352295,-0.9043728113174438,0.11965130818451712,0.06153475188829614,0.2524829696622566,0.9582012441884014,0.004339753184467554,-0.0033671213313937187,0.013745950534939766,0.0010949820280075073,-0.0095081627368927,-0.008399546146392822
2025-09-20T02:28:40Z,0.059553255124773434,0.26356700025749735,0.5076542409276337,-0.19539009034633636,-0.37950026988983154,-0.9043242335319519,0.1197243739431326,0.061550250791362074,0.2526093511285657,0.9581577961910936,0.010462910868227482,-0.0012481750454753637,0.009086379781365395,0.0028347671031951904,-0.016960233449935913,-0.00982576608657837
2025-09-20T02:28:40Z,0.05944005109416807,0.2638243005250782,0.5077813845760134,-0.19551482796669006,-0.3796989917755127,-0.9042138457298279,0.1198582759282917,0.061535156848590906,0.25266289950904003,0.958127941390708,0.014625376090407372,-0.0021018332336097956,0.0032343673519790173,0.0031651556491851807,-0.018375366926193237,-0.010096609592437744
2025-09-20T02:28:40Z,0.05939760667870605,0.2641259757980815,0.5078297321848093,-0.1955662965774536,-0.3799561560153961,-0.9040946960449219,0.12000696677577442,0.06155469418571617,0.25268283155169124,0.958102814150766,0.011737320572137833,-0.0018217379692941904,0.0033622838091105223,0.0031869858503341675,-0.014622002840042114,-0.010680198669433594
2025-09-20T02:28:40Z,0.05939391298751818,0.2643318960091362,0.5078960883266649,-0.19558291137218475,-0.38012367486953735,-0.9040206670761108,0.12010423878718123,0.06158214682199846,0.25271392646204444,0.9580806542302952,0.004642318934202194,0.0024750332813709974,0.004973005503416061,0.004433423280715942,-0.012910187244415283,-0.011567890644073486
2025-09-20T02:28:40Z,0.05941347781202086,0.26448723257286033,0.5079969074527252,-0.1955818086862564,-0.38023775815963745,-0.903972864151001,0.1201732343689918,0.06161662814773812,0.25276306178754826,0.9580567244212603,0.001824737060815096,0.0035062329843640327,0.004807283636182547,0.0026624202728271484,-0.013490557670593262,-0.01118171215057373
2025-09-20T02:28:40Z,0.05944674558798467,0.2645614069106259,0.5081058889178759,-0.19556757807731628,-0.3802776634693146,-0.9039592146873474,0.12020127482258065,0.06164820652058626,0.2528170929005782,0.9580369247350695,0.0009971277322620153,0.0014551456551998854,0.004642045125365257,0.0028510689735412598,-0.014285475015640259,-0.010372400283813477
2025-09-20T02:28:40Z,0.0594662835406317,0.26465344994078893,0.508185020679319,-0.19556228816509247,-0.3803406357765198,-0.9039338231086731,0.1202405452718007,0.06167360796597874,0.2528559583218641,0.9580201110783934,0.003035394474864006,0.0008811810985207558,0.0029078242368996143,0.0032404959201812744,-0.016241788864135742,-0.009553253650665283
2025-09-20T02:28:40Z,0.05948330677745738,0.2647488077369897,0.5082586586825848,-0.19555863738059998,-0.3804078698158264,-0.9039063453674316,0.12028189304833474,0.06169788516431337,0.2528920349663623,0.9580038308949305,0.005098389461636543,-0.0005689719691872597,0.0019091799622401595,0.004001930356025696,-0.018389582633972168,-0.009819567203521729
2025-09-20T02:28:40Z,0.05945107932200419,0.2649433705682927,0.5082369338404257,-0.1955893486738205,-0.3805863857269287,-0.9038245677947998,0.12038002417342449,0.061705000972162395,0.25287923293163495,0.9579944432046074,0.009225893765687943,-0.005744626745581627,-0.001963886432349682,0.003037378191947937,-0.01866629719734192,-0.009010374546051025
2025-09-20T02:28:40Z,0.059301068559371034,0.26512282918233426,0.5081893031633568,-0.1957227736711502,-0.3807576298713684,-0.9037235379219055,0.1204865971582273,0.06165228739775993,0.25284696361821996,0.9579929461192632,0.0036536273546516895,-0.004566500894725323,-0.0033513526432216167,0.0038605034351348877,-0.016417115926742554,-0.010917186737060547
2025-09-20T02:28:41Z,0.059252063558524214,0.2651471905563443,0.5081193887551942,-0.19575852155685425,-0.3807961344718933,-0.9036995768547058,0.12050664087039392,0.061627590401906254,0.2528104664897895,0.9580016353871752,-0.003436111845076084,-0.0025940954219549894,0.0005443955305963755,0.0034645646810531616,-0.0130845308303833,-0.010762631893157959
2025-09-20T02:28:41Z,0.05917654008843682,0.26497936412828826,0.5081635551219962,-0.19582873582839966,-0.380636066198349,-0.903751790523529,0.12043427369384455,0.061573496223648355,0.2528274773143579,0.9580097178815624,-0.011785048060119152,-0.003591179847717285,0.0013864601496607065,0.004324063658714294,-0.011502236127853394,-0.010432779788970947
2025-09-20T02:28:41Z,0.05912237496820445,0.26467220576375233,0.5082606639428585,-0.19588340818881989,-0.3803391754627228,-0.9038649201393127,0.12029069751138445,0.061515718898042575,0.252871463214279,0.9580198942912312,-0.016271766275167465,-0.0024703722447156906,0.006626014597713947,0.0036993473768234253,-0.011113107204437256,-0.010612726211547852
2025-09-20T02:28:41Z,0.05900589144380757,0.2644352599612531,0.5085102933013333,-0.1960158348083496,-0.3800681233406067,-0.9039502143859863,0.12018402275859169,0.061445856146826724,0.2529846025608998,0.9580079105295264,-0.012168092653155327,-0.00786429364234209,0.011318834498524666,0.003456026315689087,-0.014051258563995361,-0.008924543857574463
2025-09-20T02:28:41Z,0.058742198513242264,0.26428369470622115,0.5087428951981984,-0.1962810456752777,-0.3798772096633911,-0.9039729237556458,0.1201374956821739,0.061314912531620865,0.2530805427971853,0.9579968191952264,-0.006671008188277483,-0.010613731108605862,0.012337928637862206,0.0020502060651779175,-0.015414565801620483,-0.010294318199157715
2025-09-20T02:28:41Z,0.05857185628936457,0.26421954328833097,0.5090120883446296,-0.19646857678890228,-0.3797553479671478,-0.9039834141731262,0.12012001930954071,0.06124161128140869,0.25319941772183935,0.957972269024986,-0.0027587702497839928,-0.0032630180940032005,0.012354386039078236,0.003371790051460266,-0.016285479068756104,-0.0130842924118042
2025-09-20T02:28:41Z,0.05841678252597782,0.26416960385780763,0.5092872919135518,-0.1966433972120285,-0.3796446919441223,-0.9039918780326843,0.12010726233475563,0.06117772023347391,0.2533220409511147,0.9579455666441866,-0.0036845263093709946,-0.0018355479696765542,0.011881237849593163,0.0036543309688568115,-0.014710992574691772,-0.012873232364654541
2025-09-20T02:28:41Z,0.0583683371221197,0.2641148701025084,0.5095420269977621,-0.19671902060508728,-0.37953466176986694,-0.9040216207504272,0.1200793416655948,0.06116308385104881,0.2534412864115407,0.9579184435158552,-0.005613651126623154,0.003530996385961771,0.008903653360903263,0.0036991089582443237,-0.014461278915405273,-0.012839734554290771
2025-09-20T02:28:41Z,0.05843442966379578,0.2640119171962027,0.5097416292337981,-0.1966828852891922,-0.37939491868019104,-0.9040881395339966,0.12001544943714162,0.06119405392410193,0.2535411192287296,0.9578980555532659,-0.01060112938284874,0.0051149106584489346,0.007003015838563442,0.0024186670780181885,-0.01547202467918396,-0.012027144432067871
2025-09-20T02:28:41Z,0.0584315097214746,0.26379097724812434,0.5098261907190184,-0.1966916173696518,-0.3791777193546295,-0.9041773676872253,0.1199071969995754,0.06117053493140234,0.2535820059100983,0.9579023197468797,-0.012471466325223446,-0.0002528950572013855,0.005637519992887974,0.002025008201599121,-0.014950007200241089,-0.010708868503570557
2025-09-20T02:28:41Z,0.058428607359977215,0.26357003717987065,0.5099106875494253,-0.1967002898454666,-0.3789604902267456,-0.9042665362358093,0.11979894930808731,0.061147016379676664,0.2536228716673183,0.9579065258911162,-0.014341803267598152,-0.0056207007728517056,0.004272024147212505,0.0016312897205352783,-0.014428019523620605,-0.009390652179718018
2025-09-20T02:28:41Z,0.058359241273632956,0.2633603862689648,0.5099808492881899,-0.19676749408245087,-0.3787567615509033,-0.9043372869491577,0.11970498427817719,0.0610921820798199,0.25365285400872567,0.9579138520893592,-0.012029404751956463,-0.004313018172979355,0.0024402327835559845,0.0018482208251953125,-0.016065597534179688,-0.010983824729919434
2025-09-20T02:28:41Z,0.05829673111646722,0.26311827933799936,0.5100813063486417,-0.19683167338371277,-0.3785167336463928,-0.9044237732887268,0.11959366156544754,0.06103845199306869,0.2536978709938457,0.9579191630647709,-0.011174395680427551,-0.002113818423822522,0.007299402728676796,0.0009785741567611694,-0.013297170400619507,-0.009595394134521484
2025-09-20T02:28:41Z,0.05817024439786847,0.2628512085349929,0.5103043115569409,-0.19696909189224243,-0.3782249689102173,-0.9045159220695496,0.11947473616362676,0.06095830217351339,0.25379781110840627,0.9579126206431667,-0.018910827115178108,-0.003531115595251322,0.015454689972102642,0.0013641119003295898,-0.011704057455062866,-0.01045149564743042
2025-09-20T02:28:41Z,0.05816668005130121,0.26242288832483623,0.5108368684238299,-0.1970318704843521,-0.3777148723602295,-0.904715359210968,0.11925340777823722,0.060935579495404936,0.2540537747634086,0.9578737677000958,-0.025134846568107605,0.01676597259938717,0.026567991822957993,0.0020475387573242188,-0.013183891773223877,-0.013512015342712402
2025-09-20T02:28:41Z,0.05853058842421482,0.26199814011946754,0.511444549592745,-0.19677188992500305,-0.3771897852420807,-0.9049909710884094,0.11898477545100145,0.0610936247385331,0.2543675328921975,0.9578139300770772,-0.023670896887779236,0.03143444284796715,0.026584703475236893,0.004126518964767456,-0.01787373423576355,-0.01403278112411499
2025-09-20T02:28:41Z,0.059052887767636786,0.26156673644307815,0.5120417497826246,-0.19636675715446472,-0.376661092042923,-0.9052991271018982,0.11869301118850974,0.06132592932375924,0.25468559415722153,0.9577507992086903,-0.026464419439435005,0.03366277366876602,0.03065161406993866,0.0037650614976882935,-0.014890462160110474,-0.012998402118682861
2025-09-20T02:28:41Z,0.05956794667077174,0.26092759107796465,0.5127938233316198,-0.1959831267595291,-0.3759095072746277,-0.9056946039199829,0.11829758777592864,0.061538065694518654,0.2550777080508448,0.9576817356773563,-0.04140450805425644,0.038240984082221985,0.034289464354515076,0.0042330920696258545,-0.013279527425765991,-0.013925433158874512
2025-09-20T02:28:41Z,0.06018687183614663,0.25997607583357446,0.5134563065576832,-0.19548635184764862,-0.37490037083625793,-0.9062200784683228,0.11774162297012146,0.06175565769458385,0.2554334611505278,0.9576414154747666,-0.0551544688642025,0.03860475867986679,0.02614622935652733,0.004577755928039551,-0.014390677213668823,-0.012733936309814453
2025-09-20T02:28:41Z,0.060627389605480676,0.25872522027869155,0.5141253529968077,-0.19514480233192444,-0.3736218214035034,-0.9068214893341064,0.11706447597238112,0.061850717757543056,0.2557820933516227,0.9576252531083869,-0.07073824107646942,0.025827571749687195,0.028132207691669464,0.0027381926774978638,-0.011699885129928589,-0.0049436092376708984
2025-09-20T02:28:41Z,0.0608753868069147,0.2571838700854275,0.5148789574385498,-0.19498169422149658,-0.3720623552799225,-0.9074975252151489,0.11626989079640299,0.06182197974468901,0.2561601646922622,0.9576228110827947,-0.08844974637031555,0.021316438913345337,0.031063180416822433,0.003133997321128845,-0.01266336441040039,-0.0037456750869750977
2025-09-20T02:28:41Z,0.06117720582207377,0.25526946342011303,0.5157517412208035,-0.194776251912117,-0.3701392412185669,-0.9083276391029358,0.11528568986374102,0.06177882971891099,0.2565986818688526,0.9576271653879356,-0.1115429550409317,0.02929002046585083,0.039042215794324875,0.002901792526245117,-0.011867642402648926,-0.008079230785369873
2025-09-20T02:28:41Z,0.06172544002089033,0.25273802504027654,0.5168013421842476,-0.19435495138168335,-0.3676190674304962,-0.9094406962394714,0.11396824368867772,0.06178588992598369,0.2571362806974323,0.957640216743971,-0.15744026005268097,0.04536791145801544,0.05235053598880768,0.0019262880086898804,-0.007151007652282715,-0.012007534503936768
2025-09-20T02:28:41Z,0.06252009486186526,0.24882718812579777,0.5183664311410937,-0.19374258816242218,-0.3637337386608124,-0.9111320376396179,0.1119410767533133,0.0617658798444274,0.2579348799566157,0.9576658273422123,-0.25612565875053406,0.07537011057138443,0.07017792016267776,0.004314929246902466,0.0024914145469665527,-0.01600825786590576
2025-09-20T02:28:41Z,0.06392110922630474,0.2425037581611036,0.5203049951497131,-0.19256673753261566,-0.35758158564567566,-0.9138125777244568,0.10866585245425936,0.06175023472654923,0.25894401303269543,0.9577717486209034,-0.39849361777305603,0.11936664581298828,0.07352330535650253,0.004030689597129822,-0.002136796712875366,-0.02059042453765869
2025-09-20T02:28:41Z,0.06629606410183166,0.23317126927773899,0.5222349100578946,-0.19042199850082397,-0.34869951009750366,-0.9176862835884094,0.10381905020636827,0.061814310946115496,0.2599913798590271,0.9580214513398163,-0.5561735033988953,0.15966400504112244,0.04516153037548065,0.001590639352798462,-0.01477167010307312,-0.019540369510650635
2025-09-20T02:28:41Z,0.06922767601858067,0.2205690378888886,0.5239670684161359,-0.1876506209373474,-0.3368675410747528,-0.9226632714271545,0.09733329302608378,0.06171140959324038,0.26094816508425167,0.9584487812262601,-0.7239962816238403,0.16243456304073334,0.032766830176115036,-0.00658494234085083,-0.004106670618057251,-0.00822359323501587
2025-09-20T02:28:41Z,0.07189607721557649,0.20416444389483873,0.5263127825972308,-0.18509502708911896,-0.32135921716690063,-0.9286916255950928,0.08903276876033883,0.061013720826486574,0.26214457822020926,0.9589738627171311,-0.941057562828064,0.1657441258430481,0.09206622838973999,-0.009309396147727966,0.02964910864830017,-0.008175492286682129
2025-09-20T02:28:41Z,0.07506519104991657,0.1833936418299977,0.5303655707107038,-0.18217283487319946,-0.3013250231742859,-0.9359574317932129,0.07851219866042339,0.06004184336906774,0.2641166650867649,0.9594129886920886,-1.1562739610671997,0.2438485324382782,0.13766838610172272,0.007277309894561768,0.014356553554534912,-0.028310716152191162
2025-09-20T02:28:41Z,0.0798200508547754,0.1591914941300092,0.5347922832020271,-0.17771118879318237,-0.2778792083263397,-0.9440348744392395,0.06611609582629334,0.05935159445597753,0.26623446178988347,0.9598048279848078,-1.2665057182312012,0.3087497055530548,0.09266006946563721,0.012751802802085876,-0.048909515142440796,-0.029196739196777344
2025-09-20T02:28:41Z,0.08613983551792975,0.13406313968504882,0.5377708063195269,-0.1715344935655594,-0.2537578344345093,-0.9519363641738892,0.0531020929313956,0.0591938257210648,0.2675949912194795,0.9602443874300084,-1.2365210056304932,0.33784177899360657,-0.00216839462518692,0.00367891788482666,-0.10080555081367493,-0.005937159061431885
2025-09-20T02:28:41Z,0.09186313443040482,0.11058827677046577,0.5388831799656318,-0.16569802165031433,-0.23149308562278748,-0.9586214423179626,0.0410120753068015,0.05888703996068331,0.26795206102881575,0.9607560096758198,-1.1023048162460327,0.24325871467590332,-0.08614540100097656,-0.019842490553855896,-0.11224973201751709,0.02184462547302246
2025-09-20T02:28:41Z,0.09589135341594585,0.09043320931849622,0.5393872392846392,-0.16146902740001678,-0.21238712966442108,-0.963752806186676,0.030760709120772497,0.058177031593149034,0.26794599458892593,0.9611838163155836,-0.905670166015625,0.15957893431186676,-0.045045096427202225,-0.019326671957969666,-0.07228471338748932,0.021188318729400635
2025-09-20T02:28:41Z,0.09831605349164974,0.07467645144154661,0.5406612743112674,-0.15897232294082642,-0.19716759026050568,-0.9673948287963867,0.02281716180348805,0.057277465438318374,0.2683092416840532,0.9613579045230131,-0.6799461841583252,0.11043956875801086,0.007649235427379608,-0.0028096139430999756,-0.0502316951751709,-0.002113819122314453
2025-09-20T02:28:41Z,0.10033095004730525,0.06350135359413028,0.5426279545705477,-0.15705084800720215,-0.18607422709465027,-0.9699028134346008,0.017113795929198202,0.05678274883701573,0.2690591252912326,0.9612961230734952,-0.4632735848426819,0.10894837975502014,0.06899875402450562,0.01491546630859375,-0.030581220984458923,-0.01746225357055664
2025-09-20T02:28:41Z,0.10190458723477283,0.05664785602080701,0.5449468952975498,-0.1556822806596756,-0.178976908326149,-0.971457839012146,0.01353939545951851,0.0566431278046463,0.2700465134772886,0.9610844752336991,-0.2442810982465744,0.05888643115758896,0.08685991168022156,0.013578951358795166,-0.034948334097862244,-0.012186229228973389
2025-09-20T02:28:41Z,0.10236648690037957,0.05428296627456486,0.5466223311579489,-0.1553959846496582,-0.17630378901958466,-0.9719923138618469,0.012292306925530091,0.05655934621313296,0.270805251653618,0.9608926804941438,-0.010539650917053223,-0.006569534540176392,0.053624965250492096,0.01669210195541382,-0.044502899050712585,-0.014769375324249268
2025-09-20T02:28:41Z,0.10169787607872438,0.05788563676185903,0.5474724851651772,-0.15621483325958252,-0.17951330542564392,-0.9712733626365662,0.014090969103704349,0.05672703474597238,0.27128404570451053,0.9607230105302258,0.14804884791374207,-0.024683095514774323,0.0785638615489006,0.022073224186897278,-0.006287038326263428,-0.01675271987915039
2025-09-20T02:28:41Z,0.10102603937788864,0.06148774158858133,0.548325233822237,-0.15703710913658142,-0.18271929025650024,-0.9705426096916199,0.015889585246359254,0.05689451904232857,0.2717618889653144,0.9605499331951727,0.30663734674453735,-0.04279665648937225,0.10350275784730911,0.02745780348777771,0.03192529082298279,-0.018747806549072266
2025-09-20T02:28:41Z,0.10016449000196367,0.06850209706126305,0.550015957099007,-0.15820904076099396,-0.1889478713274002,-0.9691587090492249,0.019329823373580107,0.057439445910717514,0.2727049303547268,0.9601871146168454,0.376705139875412,-0.044040780514478683,0.13886503875255585,0.03178948163986206,0.043036580085754395,-0.01826256513595581
2025-09-20T02:28:41Z,0.09908081872439359,0.07681504678834528,0.5518876450943099,-0.15964393317699432,-0.1963510811328888,-0.9674503207206726,0.023418026349343965,0.05806050017546941,0.27374974133141716,0.9597613551389212,0.42779600620269775,-0.04802054911851883,0.12265133112668991,0.03517964482307434,0.023659154772758484,-0.016972005367279053
2025-09-20T02:28:41Z,0.0979219445519387,0.08604585549462564,0.5529614170479787,-0.16107521951198578,-0.2048109620809555,-0.965457022190094,0.027979396553618925,0.058765495241863294,0.2744172946022151,0.9594055978627124,0.4837612807750702,-0.06930018961429596,0.07182222604751587,0.02689141035079956,0.005484491586685181,-0.009832441806793213
2025-09-20T02:28:41Z,0.096363122960959,0.09613172864914345,0.5531648932810319,-0.16280779242515564,-0.21428082883358002,-0.9631081819534302,0.03303100452968471,0.05938397919828671,0.27466378873602043,0.9591363732183297,0.5293687582015991,-0.10333827137947083,0.05982726067304611,0.014121681451797485,0.017369121313095093,-0.00010818243026733398
2025-09-20T02:28:41Z,0.0938960909532245,0.10679941563203062,0.5535750245765512,-0.16545169055461884,-0.22422388195991516,-0.9603902101516724,0.03847988905084268,0.05964954394574023,0.2749862035619922,0.9588242352257946,0.5575733184814453,-0.141993448138237,0.08454915881156921,0.0035869181156158447,0.025420382618904114,0.0011799335479736328
2025-09-20T02:28:41Z,0.09093034625609675,0.11804316781032795,0.5543579274640791,-0.16862697899341583,-0.23458775877952576,-0.9573575854301453,0.04426191773162996,0.05976344915875141,0.2754632266425499,0.958430618221542,0.5688239336013794,-0.1620694100856781,0.09163860231637955,0.0016139298677444458,0.017742574214935303,-0.008590519428253174
2025-09-20T02:28:41Z,0.08774823668421652,0.1294787988646516,0.5550556390071728,-0.17199605703353882,-0.245123490691185,-0.9541131258010864,0.05016728082750274,0.059801187679340055,0.27587076168111907,0.9580200668256754,0.5796967148780823,-0.1615929752588272,0.07919502258300781,0.0003921091556549072,-0.00031016767024993896,-0.017997920513153076
2025-09-20T02:28:41Z,0.08461003040898822,0.14111706296398396,0.5553737402055354,-0.17527362704277039,-0.2559124231338501,-0.9506776332855225,0.05617378543930139,0.05988006514796511,0.27607248905400883,0.9576235860312345,0.5934206247329712,-0.16320906579494476,0.05401236191391945,-0.002994626760482788,-0.014846116304397583,-0.01789987087249756
2025-09-20T02:28:41Z,0.08125175606589567,0.15290910989900383,0.5551468493346425,-0.17868852615356445,-0.2669472098350525,-0.9470003247261047,0.062299054500346694,0.05985860960464735,0.27598024288173767,0.9572725744244818,0.604445219039917,-0.1803072839975357,0.029453212395310402,-0.012132659554481506,-0.022825896739959717,-0.011317253112792969
2025-09-20T02:28:41Z,0.07762262729470991,0.16475142934369008,0.5545749985647668,-0.1823064088821411,-0.27807796001434326,-0.9430996775627136,0.06849408970467626,0.05970057018587069,0.2756847857296536,0.9569442708605841,0.5988605618476868,-0.20314018428325653,0.011961227282881737,-0.017164289951324463,-0.021597206592559814,-0.008153796195983887
2025-09-20T02:28:41Z,0.0736993967202755,0.17636778260500835,0.5538946286817701,-0.18616656959056854,-0.2889878451824188,-0.9390569925308228,0.07462215776701281,0.05936350597630576,0.27529420328175064,0.956619402665912,0.5758224725723267,-0.20486006140708923,0.0024697566404938698,-0.014530882239341736,-0.019818931818008423,-0.010398805141448975
2025-09-20T02:28:42Z,0.06997740288350819,0.18747376483572312,0.5527936032480469,-0.18975767493247986,-0.2994939982891083,-0.9350376129150391,0.08048773090142022,0.05903295922361426,0.2746766561472325,0.9563418420496419,0.5469618439674377,-0.20069754123687744,-0.02691718563437462,-0.012537732720375061,-0.029723554849624634,-0.012183547019958496
2025-09-20T02:28:42Z,0.06637557896355276,0.19797350257746538,0.5511882145714941,-0.19314439594745636,-0.3095323145389557,-0.9310665726661682,0.08605835247352144,0.05865060069234213,0.2737929097227541,0.9561337153960069,0.5192307829856873,-0.1909763365983963,-0.05971760302782059,-0.009759962558746338,-0.0353827178478241,-0.01087331771850586
2025-09-20T02:28:42Z,0.0632068389635951,0.20788204571685415,0.548890741845641,-0.19601456820964813,-0.31916701793670654,-0.9272058606147766,0.09130386589642987,0.05835609587632192,0.2725715595877197,0.9560142018065682,0.4867992103099823,-0.16944217681884766,-0.09673427790403366,-0.007242336869239807,-0.03979218006134033,-0.014242172241210938
2025-09-20T02:28:42Z,0.06069757922315151,0.21704635586162957,0.5460022983816895,-0.1981717050075531,-0.32823672890663147,-0.9235738515853882,0.09611775657702634,0.05823791342511801,0.27107790590989916,0.9559742387127045,0.4511205554008484,-0.13931630551815033,-0.12654951214790344,-0.0038554370403289795,-0.03508800268173218,-0.016079843044281006
2025-09-20T02:28:42Z,0.0590412939450271,0.2254268346582461,0.5425953241064039,-0.19945146143436432,-0.33669230341911316,-0.9202485680580139,0.10045414757533791,0.05838441847913502,0.2693637832122277,0.9560039413833722,0.4051865041255951,-0.11292804777622223,-0.15090900659561157,-5.7056546211242676e-05,-0.02729061245918274,-0.017677664756774902
2025-09-20T02:28:42Z,0.057872359802518536,0.23289483011278633,0.5388904783974163,-0.20022065937519073,-0.34436801075935364,-0.9172362685203552,0.10429596930716013,0.05861432469346329,0.26752344139468587,0.9560952008956999,0.3577404022216797,-0.0836663544178009,-0.15731513500213623,0.0031914114952087402,-0.020656317472457886,-0.01808321475982666
2025-09-20T02:28:42Z,0.05729125493581552,0.23934743431746888,0.5351407515789396,-0.2004198133945465,-0.35111528635025024,-0.9146310687065125,0.10757433316177394,0.05897695710563035,0.26568815244009736,0.9562213887139221,0.30813536047935486,-0.06177224963903427,-0.16637231409549713,0.005784153938293457,-0.0194837749004364,-0.01595163345336914
2025-09-20T02:28:42Z,0.05714823344548876,0.2449513785179087,0.5312901410663972,-0.20018582046031952,-0.35710474848747253,-0.9123606085777283,0.11039188904360865,0.059421913733661756,0.2638268161737049,0.9563880471385733,0.2665446698665619,-0.04686157777905464,-0.17315976321697235,0.00873740017414093,-0.018084347248077393,-0.011493384838104248
2025-09-20T02:28:42Z,0.05707178566997174,0.2496442146974824,0.5273282357796506,-0.199856236577034,-0.36228808760643005,-0.9103871583938599,0.11276866413460167,0.05976517112206279,0.2619162590637473,0.9566145009105531,0.23144784569740295,-0.05688270553946495,-0.18670859932899475,0.007212594151496887,-0.01960936188697815,-0.003506004810333252
2025-09-20T02:28:42Z,0.05674066264841644,0.25377247507422185,0.5232167661915683,-0.19972465932369232,-0.36698979139328003,-0.9085309505462646,0.11491355792479037,0.059897077128621946,0.2599196013432605,0.9568955275048556,0.1977117359638214,-0.07500313222408295,-0.17523600161075592,0.0004355013370513916,-0.008721858263015747,-0.00160139799118042
2025-09-20T02:28:42Z,0.05617662861218526,0.25718195398314314,0.5196579776281219,-0.19985559582710266,-0.37090447545051575,-0.9069110155105591,0.11672779264968752,0.05985085516347657,0.25817417532222053,0.9571512827429026,0.1599450707435608,-0.07794836163520813,-0.1414288878440857,0.002715691924095154,-0.003797203302383423,-0.004169821739196777
2025-09-20T02:28:42Z,0.05543545805548504,0.25988568839456677,0.5168213901380379,-0.20022088289260864,-0.37400710582733154,-0.905555248260498,0.1182045291497562,0.05966816089208874,0.25676446662360763,0.9573607510605089,0.1298389583826065,-0.06847831606864929,-0.11961770057678223,0.006128653883934021,-0.01058882474899292,-0.008948683738708496
2025-09-20T02:28:42Z,0.054848869893542915,0.26216736826126785,0.5143141766152701,-0.2004767209291458,-0.37664902210235596,-0.9044029116630554,0.11944875240342295,0.05952268529584024,0.2555216582401463,0.9575478784874302,0.110337033867836,-0.0595572367310524,-0.10627039521932602,0.008472204208374023,-0.0163252055644989,-0.012713730335235596
2025-09-20T02:28:42Z,0.05425112891372722,0.2641620115224251,0.5120339421008928,-0.20076365768909454,-0.3789770305156708,-0.9033661484718323,0.12054959499869895,0.059347030774164505,0.254386861969538,0.9577229605784494,0.10121248662471771,-0.05956105887889862,-0.10432182252407074,0.006681069731712341,-0.020357578992843628,-0.012049555778503418
2025-09-20T02:28:42Z,0.0536461255440811,0.2659678697922587,0.5096950534833404,-0.2010434865951538,-0.38114824891090393,-0.9023898839950562,0.12156212517866151,0.059138665076618954,0.2532233529486063,0.957916154994459,0.09608618915081024,-0.07097680866718292,-0.10739143937826157,0.004538506269454956,-0.020382195711135864,-0.008440017700195312
2025-09-20T02:28:42Z,0.052786761652550335,0.26773682434994817,0.5073740023803356,-0.20155195891857147,-0.3832798898220062,-0.901373028755188,0.12258803708768584,0.058802748380352994,0.2520520917335464,0.9581149464278154,0.08776925504207611,-0.07318168133497238,-0.10152487456798553,0.0022323131561279297,-0.015279412269592285,-0.00826042890548706
2025-09-20T02:28:42Z,0.05199690464658359,0.2693473604215132,0.5052063236959959,-0.2020120918750763,-0.38523155450820923,-0.9004375338554382,0.12352395812425772,0.05848801794329338,0.2509582051468928,0.9583010959173242,0.08152247965335846,-0.06745805591344833,-0.09182048588991165,0.0035763531923294067,-0.013297945261001587,-0.00850611925125122
2025-09-20T02:28:42Z,0.051253245013177615,0.2709224851608048,0.5031561056187455,-0.20244315266609192,-0.38712161779403687,-0.8995296359062195,0.12443303988329373,0.058196504229725485,0.24992271371192984,0.9584718460389847,0.08056332916021347,-0.06301212310791016,-0.09326878935098648,0.0045335739850997925,-0.016077816486358643,-0.009694516658782959
2025-09-20T02:28:42Z,0.05077362174180393,0.2724401795115869,0.5010967153658666,-0.20263250172138214,-0.38896098732948303,-0.8986931443214417,0.12528138152277263,0.05802224876378389,0.24889879427741532,0.9586383698470556,0.07519041001796722,-0.052699632942676544,-0.09048355370759964,0.0037994086742401123,-0.01242104172706604,-0.01202315092086792
2025-09-20T02:28:42Z,0.050412853013391754,0.2733669406310941,0.49937565648405136,-0.20274677872657776,-0.3901938498020172,-0.8981328010559082,0.12582110045966566,0.05785331878514046,0.2480467956796233,0.9587987090692942,0.05795491859316826,-0.048329416662454605,-0.08368110656738281,0.0030402839183807373,-0.01141461730003357,-0.011285543441772461
2025-09-20T02:28:42Z,0.05005364513951244,0.2742942864687757,0.49765452660055837,-0.20285862684249878,-0.39142629504203796,-0.8975710868835449,0.12636067701878406,0.05768432437677158,0.24719454241291577,0.958958033023217,0.04071942716836929,-0.043959200382232666,-0.07687865942716599,0.0022787153720855713,-0.010408580303192139,-0.010549306869506836
2025-09-20T02:28:42Z,0.04969601572662992,0.27522221261340113,0.4959332846285163,-0.202968031167984,-0.3926583528518677,-0.8970080018043518,0.1269001092203132,0.0575152712004546,0.24634201895005514,0.9591163424054516,0.023483937606215477,-0.03958898410201073,-0.07007621228694916,0.0015146732330322266,-0.00940290093421936,-0.00981438159942627
2025-09-20T02:28:42Z,0.04945448199795307,0.2755737807588176,0.49444202299958934,-0.20299193263053894,-0.39332449436187744,-0.8967107534408569,0.12714153777255008,0.057346794708497295,0.24560973281979823,0.959282291636295,0.014966106042265892,-0.03169123828411102,-0.06530839949846268,0.0017282664775848389,-0.010742276906967163,-0.011213481426239014
2025-09-20T02:28:42Z,0.04916048350619828,0.2757243664489432,0.49309630811359345,-0.20307780802249908,-0.3937775790691376,-0.8964923620223999,0.1272884783232316,0.057138157552886426,0.2449447975417469,0.9594451458875443,0.011320898309350014,-0.035559386014938354,-0.062161244451999664,0.0012374436482787132,-0.012801680713891983,-0.01067765336483717
2025-09-20T02:28:42Z,0.04883733890011352,0.27595844213212284,0.4917106840452368,-0.2031855285167694,-0.39431384205818176,-0.8962322473526001,0.12748000393794617,0.05692273481129538,0.2442582789000342,0.9596075263646434,0.016874859109520912,-0.03740346431732178,-0.06772531569004059,0.0007579773664474487,-0.01622423529624939,-0.010883927345275879
2025-09-20T02:28:42Z,0.04852627703459893,0.2763337156399785,0.49023671937045016,-0.20327256619930267,-0.39499571919441223,-0.8959121704101562,0.12774019279208568,0.056723970705001,0.24352927036158464,0.9597699707718258,0.02311449870467186,-0.03532694652676582,-0.07010802626609802,0.001637876033782959,-0.016950368881225586,-0.012439131736755371
2025-09-20T02:28:42Z,0.04828780964929886,0.27679889949896486,0.4887238448736261,-0.20329034328460693,-0.39576593041419983,-0.8955681920051575,0.1280356639138958,0.056567836376983156,0.24278559972352678,0.9599282074469128,0.024536985903978348,-0.029418064281344414,-0.06664679944515228,0.002148047089576721,-0.014144033193588257,-0.013502061367034912
2025-09-20T02:28:42Z,0.04810732569084365,0.27724527587964615,0.4873912100888238,-0.20327967405319214,-0.3964763879776001,-0.8952563405036926,0.12830980884363097,0.0564484667356534,0.24213208370838066,0.960063744260058,0.021309347823262215,-0.02356664650142193,-0.05735454708337784,0.0019123107194900513,-0.00994575023651123,-0.012679100036621094
2025-09-20T02:28:42Z,0.04801576323912901,0.27762987447177945,0.4862787284538137,-0.20321767032146454,-0.397079735994339,-0.8950029611587524,0.1285371974518611,0.056378344587413885,0.24159017795936907,0.9601739758798529,0.01710505783557892,-0.0178691279143095,-0.04620056226849556,0.0020129382610321045,-0.008970588445663452,-0.011857151985168457
2025-09-20T02:28:42Z,0.047999125044098555,0.27792339735954114,0.4853323607556159,-0.20310920476913452,-0.39756301045417786,-0.8948130011558533,0.12870703371993786,0.05634397176358368,0.24113325012440362,0.9602680858216553,0.012607540935277939,-0.011354241520166397,-0.03769473731517792,0.002075210213661194,-0.009854018688201904,-0.01219850778579712
2025-09-20T02:28:42Z,0.0480652902310275,0.27811523282412387,0.48456200055934645,-0.20294855535030365,-0.3979146480560303,-0.89469313621521,0.12881302828316146,0.05634863558468012,0.24076664008775223,0.9603455993844578,0.009006839245557785,-0.005745559465140104,-0.034591928124427795,0.0020637810230255127,-0.011321872472763062,-0.0127638578414917
2025-09-20T02:28:42Z,0.04822536898884394,0.2782718763849584,0.4838467001850871,-0.2027106136083603,-0.39822202920913696,-0.8946103453636169,0.12888927750722087,0.05639775772379232,0.2404326843723417,0.9604161430676668,0.009069694206118584,-0.00052307965233922,-0.030980374664068222,0.0017548054456710815,-0.012751221656799316,-0.012417137622833252
2025-09-20T02:28:42Z,0.048431835591295,0.2784109373603145,0.4831587696790884,-0.2024344801902771,-0.39850735664367676,-0.8945457935333252,0.12895077748161807,0.056468819068923794,0.24011494105371556,0.960483191777253,0.008164336904883385,0.002206894801929593,-0.029481902718544006,0.0019605904817581177,-0.013094425201416016,-0.01322871446609497
2025-09-20T02:28:42Z,0.048819807914953155,0.27838361513028037,0.4826366340023028,-0.20201538503170013,-0.39860641956329346,-0.8945963978767395,0.12890584091513763,0.05661829927219331,0.2398893321746952,0.9605367723967618,0.004160855896770954,0.004048741888254881,-0.02807382494211197,0.0023111850023269653,-0.014557331800460815,-0.011716902256011963
2025-09-20T02:28:42Z,0.049207767664892633,0.2783561344733413,0.4821145171125337,-0.2015962302684784,-0.3987053334712982,-0.8946468830108643,0.12886090909473527,0.05676777991643674,0.23966370237152618,0.9605902949668932,0.00015737488865852356,0.005890588741749525,-0.02666574716567993,0.00266169011592865,-0.01602044701576233,-0.010205209255218506
2025-09-20T02:28:42Z,0.04959569797304128,0.27832846435914044,0.48159241562419347,-0.20117700099945068,-0.3988040089607239,-0.8946972489356995,0.12881597536500364,0.05691725611309616,0.2394380622389995,0.9606436977109425,-0.0038461056537926197,0.007732435129582882,-0.025257669389247894,0.0030121803283691406,-0.017483770847320557,-0.0086936354637146
2025-09-20T02:28:42Z,0.0498723038707841,0.2782715552139286,0.48103367712825895,-0.20085172355175018,-0.39888548851013184,-0.8947340250015259,0.12877140963936268,0.05700752129453213,0.2391877532724181,0.9607066667105896,-0.0009434670209884644,0.0016796435229480267,-0.026867253705859184,0.0035025328397750854,-0.01863151788711548,-0.0074912309646606445
2025-09-20T02:28:42Z,0.05007208351161387,0.2783100239476773,0.4804368395156378,-0.2005917876958847,-0.3990601897239685,-0.8947144150733948,0.1287830543690373,0.05706951817165219,0.23891372296826227,0.9607696956977183,0.004007377196103334,0.001759720267727971,-0.027254393324255943,0.004575774073600769,-0.019148707389831543,-0.009597420692443848
2025-09-20T02:28:42Z,0.0502323212146158,0.278443342158898,0.47996027562789184,-0.20038560032844543,-0.3992903232574463,-0.8946579694747925,0.1288416776700987,0.057131263451802354,0.23869450108049958,0.9608127101420036,0.0036977645941078663,0.0001697125844657421,-0.019673610106110573,0.00409872829914093,-0.016407698392868042,-0.009506523609161377
2025-09-20T02:28:42Z,0.05039260201936164,0.2785765443858071,0.4794836159219389,-0.20017927885055542,-0.39952024817466736,-0.8946014642715454,0.1289002911012224,0.057192997714337356,0.23847526477166894,0.9608555443327291,0.003388151992112398,-0.0014202950987964869,-0.012092826887965202,0.0036215633153915405,-0.013666868209838867,-0.009415686130523682
2025-09-20T02:28:42Z,0.050529089476961116,0.27868148445343877,0.4792364766484498,-0.2000252902507782,-0.39967116713523865,-0.8945685029029846,0.12894159167531516,0.057254788488509636,0.238364865413128,0.9608737531884778,0.002631915034726262,0.006313248537480831,-0.00546585489064455,0.004779264330863953,-0.01523447036743164,-0.011958062648773193
2025-09-20T02:28:42Z,0.05085078535405686,0.278782229598609,0.4790786506682497,-0.19971783459186554,-0.39979735016822815,-0.8945808410644531,0.12895626217521297,0.057410824394728485,0.23830934138416268,0.9608762823681795,0.004835973028093576,0.015098830685019493,-0.008039727807044983,0.006219655275344849,-0.019387274980545044,-0.01261359453201294
2025-09-20T02:28:42Z,0.05126527624851678,0.27892881626105304,0.47881801403116975,-0.19931410253047943,-0.3999881446361542,-0.8945856094360352,0.12898493706643233,0.05761012320944855,0.23821025341607838,0.9608849870100149,0.0050954208709299564,0.016048988327383995,-0.011832397431135178,0.0065316855907440186,-0.019237786531448364,-0.012272059917449951
2025-09-20T02:28:42Z,0.05169333467611471,0.2789716972434542,0.47856083043262887,-0.1988966315984726,-0.40008658170700073,-0.894634485244751,0.1289620204078213,0.057804152261125404,0.23811411472545504,0.9609002588582577,-0.0027847508899867535,0.015894023701548576,-0.008709369227290154,0.0065210312604904175,-0.013385534286499023,-0.012057960033416748
2025-09-20T02:28:42Z,0.052106710814075516,0.27881723186139296,0.47837810344059983,-0.1984984129667282,-0.3999931812286377,-0.8947647213935852,0.1288437503050081,0.05797313248132181,0.23805357115598966,0.9609209866680152,-0.01241287775337696,0.015614808537065983,-0.0022743945010006428,0.006194084882736206,-0.009863466024398804,-0.010549604892730713
2025-09-20T02:28:42Z,0.05244598984167753,0.2785236295661232,0.4783924110192972,-0.1981906145811081,-0.3997304439544678,-0.8949503302574158,0.12866164085105414,0.058103161455245765,0.23808344363086234,0.960930044484697,-0.017672084271907806,0.011741900816559792,0.004333119839429855,0.005893707275390625,-0.009666979312896729,-0.00839376449584961
2025-09-20T02:28:42Z,0.05255589046161855,0.27817788443635977,0.4785441302321923,-0.19810591638088226,-0.3993893265724182,-0.8951213359832764,0.12847772511002872,0.05812577014675146,0.23816470847045795,0.9609331978830135,-0.015473155304789543,0.0018913773819804192,0.008859492838382721,0.004383563995361328,-0.0108451247215271,-0.007045626640319824
2025-09-20T02:28:42Z,0.05249370519120628,0.2779067533041641,0.4788126812617188,-0.19819289445877075,-0.39908653497695923,-0.895237147808075,0.1283468226605995,0.05808179212506378,0.23829076068060714,0.960922150209271,-0.010918144136667252,-0.0013867071829736233,0.014398172497749329,0.00424446165561676,-0.01243513822555542,-0.008852183818817139
