timestamp,attitude_roll,attitude_pitch,attitude_yaw,gravity_x,gravity_y,gravity_z,quaternion_x,quaternion_y,quaternion_z,quaternion_w,rotation_rate_x,rotation_rate_y,rotation_rate_z,user_acceleration_x,user_acceleration_y,user_acceleration_z
2025-09-18T12:32:07Z,-0.0647672664921255,0.017730599466356186,-0.009725407284317703,-0.20936650037765503,-0.27905601263046265,-0.937173068523407,0.008702995015563538,-0.03241941164297696,-0.0051469785478406955,0.9994229808407931,-0.008635206148028374,-0.013295775279402733,0.019556455314159393,0.003860563039779663,-0.011214882135391235,0.0044921040534973145
2025-09-18T12:32:07Z,-0.06502703230586687,0.01748636285607206,-0.009327911527575115,-0.20971843600273132,-0.27876538038253784,-0.9371808767318726,0.008586746753798297,-0.03254695211397335,-0.004945511265818035,0.999420943840163,-0.012844298034906387,-0.010845564305782318,0.020211292430758476,0.0029930025339126587,-0.010621875524520874,0.002593100070953369
2025-09-18T12:32:07Z,-0.0652683724127322,0.017119583836590326,-0.008883374666842634,-0.21006761491298676,-0.278351366519928,-0.9372257590293884,0.008410127195187163,-0.03266488043042427,-0.0047184319633152855,0.99941969912344,-0.01767009310424328,-0.009840675629675388,0.024511029943823814,0.003208175301551819,-0.008196145296096802,0.0032911300659179688
2025-09-18T12:32:07Z,-0.06539591294269198,0.01645103537501723,-0.008389197012137256,-0.2103285938501358,-0.27764350175857544,-0.9373771548271179,0.008083831373420907,-0.03272522397013834,-0.004461107072127119,0.9994216319290758,-0.025144975632429123,-0.007434820756316185,0.023995505645871162,0.0025478899478912354,-0.008849024772644043,0.00373685359954834
2025-09-18T12:32:07Z,-0.06552312954291932,0.015782445728677316,-0.007895111195745857,-0.2105892300605774,-0.2769354283809662,-0.937528133392334,0.007757545002438765,-0.03278556583252926,-0.004203782430253587,0.999423384852711,-0.03261986002326012,-0.005028965882956982,0.02347998134791851,0.0018872469663619995,-0.00950208306312561,0.004182159900665283
2025-09-18T12:32:07Z,-0.06565000091962939,0.015113786745690456,-0.007401115516886817,-0.21084943413734436,-0.27622705698013306,-0.9376785755157471,0.007431254931124472,-0.03284589930369285,-0.003946457449080524,0.9994248349448605,-0.04009474068880081,-0.0026231117080897093,0.02296445704996586,0.0012262165546417236,-0.01015549898147583,0.004626870155334473
2025-09-18T12:32:07Z,-0.06576723644506206,0.014229118301263007,-0.0069753523111462275,-0.2110866904258728,-0.2753235697746277,-0.937890887260437,0.006995947089047325,-0.03290146480050996,-0.003719602901516154,0.9994270399605041,-0.04935107380151749,-0.006289005279541016,0.02105918899178505,0.0010640472173690796,-0.010877817869186401,0.003428220748901367
2025-09-18T12:32:07Z,-0.06587008875264422,0.013153364831677478,-0.006637423144832791,-0.21129092574119568,-0.27425137162208557,-0.9381589889526367,0.006463753705099678,-0.03295001669876569,-0.003533396071361317,0.9994296832639459,-0.0574827678501606,-0.006833432242274284,0.01868690550327301,0.00045581161975860596,-0.01237708330154419,-0.0002357959747314453
2025-09-18T12:32:07Z,-0.06601060559916808,0.011880970142535783,-0.00636230373697532,-0.2115175724029541,-0.2730012834072113,-0.9384725093841553,0.005832212158099867,-0.033017455586738784,-0.0033753884275423305,0.9994318484069076,-0.06259044259786606,-0.0033449132461100817,0.01456359401345253,-0.00032867491245269775,-0.014618337154388428,-0.0014829039573669434
2025-09-18T12:32:07Z,-0.06601788778606905,0.010578660501310821,-0.0061285755069458055,-0.2116088569164276,-0.2717284858226776,-0.9388212561607361,0.005185271577496309,-0.033018539627488554,-0.0032371335196743453,0.9994358249598385,-0.06621803343296051,0.004249468445777893,0.012553771957755089,0.0006902068853378296,-0.015326887369155884,-0.0012486577033996582
2025-09-18T12:32:07Z,-0.06559856084411439,0.009131696995999824,-0.0057546694148479325,-0.21133853495121002,-0.27029672265052795,-0.9392952919006348,0.004469002407530239,-0.03280605925845427,-0.0030254824200126253,0.9994469636228716,-0.07413074374198914,0.02192136086523533,0.018274815753102303,0.0023368149995803833,-0.01426514983177185,-0.004230082035064697
2025-09-18T12:32:07Z,-0.06517873241504038,0.007684880327582471,-0.0053801522308995625,-0.21106736361980438,-0.26886439323425293,-0.9397672414779663,0.0037527255864431264,-0.032593576323929986,-0.0028138249579267873,0.9994574978194436,-0.08204345405101776,0.039593249559402466,0.023995859548449516,0.003982558846473694,-0.013203978538513184,-0.00721365213394165
2025-09-18T12:32:07Z,-0.06475834250395066,0.006238241737262655,-0.0050050316208378265,-0.2107952982187271,-0.2674315571784973,-0.9402370452880859,0.003036456866789921,-0.03238106190508494,-0.0026021662092417562,0.9994674274194758,-0.08995616436004639,0.05726514011621475,0.02971690334379673,0.00562739372253418,-0.01214340329170227,-0.010199368000030518
2025-09-18T12:32:07Z,-0.06359071405983843,0.004302401657855041,-0.004553775874326688,-0.20984786748886108,-0.265520840883255,-0.9409902095794678,0.00207772459132005,-0.0317947448216139,-0.002344116744139095,0.9994893486875049,-0.11166251450777054,0.07441264390945435,0.027237704023718834,0.0042481571435928345,-0.009214162826538086,-0.006991088390350342
2025-09-18T12:32:07Z,-0.062065156246739944,0.0017419145403163947,-0.004168316531740446,-0.20855462551116943,-0.26302358508110046,-0.9419785141944885,0.0008058696945440106,-0.031029338169189395,-0.0021101765346274266,0.9995157453733008,-0.1445646733045578,0.07905905693769455,0.028102092444896698,0.003566846251487732,-0.004777193069458008,-0.0019357800483703613
2025-09-18T12:32:07Z,-0.06052757527644488,-0.0014847640628900076,-0.003773109404143479,-0.2072601467370987,-0.2598876953125,-0.9431339502334595,-0.0007991263556202784,-0.03025771042542329,-0.0018632256297460206,0.9995399283516084,-0.18434962630271912,0.07375923544168472,0.02897307090461254,0.0015641599893569946,-0.000274658203125,-0.00019210577011108398
2025-09-18T12:32:07Z,-0.059170317938117147,-0.005869414710969381,-0.003364721898866198,-0.20615321397781372,-0.25564128160476685,-0.9445360898971558,-0.0029831806481219044,-0.029575743663156562,-0.001594806053943366,0.9995566585313058,-0.26233339309692383,0.06448066234588623,0.0438995324075222,0.0037634670734405518,0.019167974591255188,-0.009823799133300781
2025-09-18T12:32:07Z,-0.05749467882302861,-0.012421641772598942,-0.002454037661014868,-0.20490263402462006,-0.24924130737781525,-0.9465165734291077,-0.006243479421083826,-0.0287351923945403,-0.0010479693314350478,0.9995668037478417,-0.39964935183525085,0.10905831307172775,0.08623343706130981,0.0085982084274292,0.03548629581928253,-0.030127108097076416
2025-09-18T12:32:07Z,-0.05484573924070447,-0.02252873068655343,-0.0008584318271141618,-0.20294557511806488,-0.23931913077831268,-0.9494943022727966,-0.011271661287926548,-0.027412863045181732,-0.0001201712574866464,0.9995604426231517,-0.6191960573196411,0.16343490779399872,0.1286151111125946,0.012660086154937744,0.0493750274181366,-0.05512124300003052
2025-09-18T12:32:07Z,-0.05005626339688478,-0.037600535214246784,0.0017359107307870093,-0.1992453783750534,-0.2244444638490677,-0.9539003968238831,-0.018771551924679875,-0.025037403582530083,0.0013379890983048089,0.9995091642931414,-0.8758946657180786,0.2979729175567627,0.20671439170837402,0.00728471577167511,0.04511858522891998,-0.06170707941055298
2025-09-18T12:32:07Z,-0.04319387289847593,-0.057609102993833115,0.00548864895572725,-0.19385437667369843,-0.20457050204277039,-0.9594641327857971,-0.02873451036768823,-0.021665242633276252,0.0033644973033298744,0.9993463721204684,-1.0911452770233154,0.37247762084007263,0.2673996686935425,-0.004974484443664551,0.03213472664356232,-0.04949921369552612
2025-09-18T12:32:07Z,-0.03470075514035157,-0.08057835473115799,0.010609919650176507,-0.1871788650751114,-0.18152806162834167,-0.9654074907302856,-0.040179694033588446,-0.017548829071478922,0.005998632082419793,0.9990201462103483,-1.151174545288086,0.43123945593833923,0.32601961493492126,-0.009853214025497437,-0.010339796543121338,-0.013273417949676514
2025-09-18T12:32:07Z,-0.025522142032396826,-0.1025674167468633,0.016612086219440617,-0.17995545268058777,-0.15920592844486237,-0.9707056879997253,-0.051149448475873535,-0.013169249218927257,0.008948461939796794,0.9985639059491468,-0.990644097328186,0.41491004824638367,0.3274048864841461,-0.014513134956359863,-0.06970718502998352,0.038404643535614014
2025-09-18T12:32:07Z,-0.017684395418032215,-0.11935602430996577,0.022400149169727785,-0.17387640476226807,-0.14191988110542297,-0.9744874238967896,-0.05953768009652676,-0.009493751623615687,0.011706799408561943,0.9981120762488852,-0.6524558663368225,0.29507705569267273,0.2726033329963684,-0.0186549574136734,-0.11051106452941895,0.0744168758392334
2025-09-18T12:32:07Z,-0.01289083896603127,-0.12848174431166268,0.02689959855353347,-0.17037415504455566,-0.13229307532310486,-0.9764584898948669,-0.06410305918555491,-0.00729488825522213,0.013835109329753386,0.9978205391052148,-0.25463905930519104,0.12897345423698425,0.18106579780578613,-0.014926522970199585,-0.11504153907299042,0.06981289386749268
2025-09-18T12:32:07Z,-0.011438361138771079,-0.1300137198446361,0.029638928109591275,-0.1696595847606659,-0.13036425411701202,-0.9768422245979309,-0.06486832841429153,-0.0066690818120272045,0.015158863572657187,0.9977562120393467,0.09335312247276306,-0.011752545833587646,0.09080618619918823,-0.009304329752922058,-0.08681027591228485,0.05153757333755493
2025-09-18T12:32:07Z,-0.012624329334337327,-0.12543568270200764,0.030707718136120714,-0.1710837036371231,-0.1346753090620041,-0.9760086536407471,-0.06257138673045391,-0.0072612442615142495,0.01571834387319721,0.9978901056544319,0.3488655686378479,-0.12068061530590057,0.008759655058383942,-0.0009737312793731689,-0.05182310938835144,0.03724294900894165
2025-09-18T12:32:07Z,-0.015843016956171678,-0.11672599806205212,0.030262727165977783,-0.17409132421016693,-0.14325907826423645,-0.9742530584335327,-0.05820172241177452,-0.008789584254852177,0.01556655613217924,0.9981445751760976,0.5101805329322815,-0.19202516973018646,-0.06292358785867691,0.009248912334442139,-0.023705556988716125,0.021134018898010254
2025-09-18T12:32:07Z,-0.020403402307161804,-0.10555059206229654,0.028583798828504283,-0.1780690997838974,-0.1544315218925476,-0.9718242287635803,-0.05259708916516458,-0.01094012727041527,0.014808859513236213,0.998445852018762,0.5939124822616577,-0.24229900538921356,-0.12091121822595596,0.01457156240940094,-0.0018808096647262573,0.00846707820892334
2025-09-18T12:32:07Z,-0.025759806748813688,-0.09332233008452048,0.025982000967343384,-0.18255525827407837,-0.1667543202638626,-0.9689512848854065,-0.04646930933780452,-0.013470334453586674,0.013576128623028877,0.9987363933442377,0.6132959723472595,-0.2619592547416687,-0.16366134583950043,0.0183047354221344,0.011996254324913025,-0.006528317928314209
2025-09-18T12:32:07Z,-0.031199152340586976,-0.08105473200574591,0.022750964154460214,-0.18692825734615326,-0.17918792366981506,-0.9658930897712708,-0.040331435038935735,-0.01604595637703193,0.011996486535328926,0.9989852544211488,0.5954052805900574,-0.25347429513931274,-0.1868986040353775,0.018741220235824585,0.01780661940574646,-0.012585997581481934
2025-09-18T12:32:07Z,-0.0363800827498877,-0.06936618308544555,0.0192273672359153,-0.19094598293304443,-0.19107723236083984,-0.9628235101699829,-0.03449405128814097,-0.018510568685484063,0.010236863469664483,0.9991808113426636,0.5607368350028992,-0.2400926649570465,-0.20230364799499512,0.020168587565422058,0.015371695160865784,-0.014166593551635742
2025-09-18T12:32:07Z,-0.04103629144857052,-0.0584791325974726,0.015497344869735547,-0.19437886774539948,-0.20219503343105316,-0.9598614573478699,-0.029069467678324155,-0.02073381104729317,0.008343450761372268,0.9993272775513663,0.5143669843673706,-0.20933879911899567,-0.20557644963264465,0.020228445529937744,0.011768877506256104,-0.013672351837158203
2025-09-18T12:32:07Z,-0.04496654499810956,-0.04855517683616638,0.011795923154933937,-0.197102352976799,-0.21235235035419464,-0.957108736038208,-0.02413609628595426,-0.02261750402153389,0.006440431122994035,0.9994318586215609,0.46569013595581055,-0.1694672703742981,-0.1991415172815323,0.017287462949752808,0.004707649350166321,-0.01179283857345581
2025-09-18T12:32:07Z,-0.048095281174076944,-0.03962755870021712,0.008358697533551823,-0.19911403954029083,-0.2214859277009964,-0.9546190500259399,-0.019706110803139547,-0.02412317602018137,0.004653702370867043,0.9995037647435505,0.41816601157188416,-0.134135439991951,-0.18226169049739838,0.013950228691101074,0.002204388380050659,-0.005881130695343018
2025-09-18T12:32:07Z,-0.05058655092665118,-0.03165616724454674,0.005383867686327699,-0.20062997937202454,-0.22960969805717468,-0.9523796439170837,-0.015754233663082557,-0.02532991624697846,0.0030910163810123122,0.9995500458850634,0.3698689639568329,-0.10679297149181366,-0.15143829584121704,0.01048344373703003,0.0011910051107406616,0.0013497471809387207
2025-09-18T12:32:07Z,-0.05259188715577115,-0.024684417922953145,0.0030910525917038794,-0.20185896754264832,-0.23665428161621094,-0.9503934383392334,-0.01229698267534731,-0.026309951406728482,0.0018693780837168684,0.9995762931581431,0.3174665868282318,-0.08667699992656708,-0.11075827479362488,0.007899150252342224,0.0008534789085388184,0.003949880599975586
2025-09-18T12:32:07Z,-0.05416265704296324,-0.018849137568070842,0.00155567011074933,-0.2028769552707672,-0.2424827367067337,-0.9487059712409973,-0.009399910758602175,-0.027084139549588312,0.0010327102469848363,0.9995882823767016,0.26132944226264954,-0.0651610717177391,-0.07025692611932755,0.007148429751396179,-0.0017448663711547852,0.003512084484100342
2025-09-18T12:32:07Z,-0.05522405398656289,-0.01413700847766308,0.0007054924224447125,-0.20359906554222107,-0.24712412059307098,-0.9473527073860168,-0.0070560127120801374,-0.027610322326603497,0.0005477523231495529,0.9995936040358498,0.2051372230052948,-0.049468640238046646,-0.040671251714229584,0.006056249141693115,-0.006246551871299744,0.005311191082000732
2025-09-18T12:32:07Z,-0.05606768612847107,-0.01058908552700993,0.00024863142370974803,-0.20422989130020142,-0.2505874037742615,-0.946306586265564,-0.005288953563134851,-0.028030438510471954,0.00027267141820509484,0.9995929547249031,0.14838726818561554,-0.03646431863307953,-0.021302584558725357,0.0048888325691223145,-0.007431089878082275,0.00291365385055542
2025-09-18T12:32:07Z,-0.056763498378660446,-0.00817999299941852,0.00010710704730410379,-0.2048170566558838,-0.2529117465019226,-0.9455609917640686,-0.004086818543408092,-0.028377923017653097,0.00016959689058714986,0.9995888090285735,0.09151096642017365,-0.02829384058713913,-0.00504160113632679,0.001374661922454834,-0.005779445171356201,-0.0003414750099182129
2025-09-18T12:32:07Z,-0.05724297902168527,-0.006845408280735981,0.00016405068921074154,-0.2052658647298813,-0.25417834520339966,-0.9451239705085754,-0.003418948560965984,-0.02861769728804738,0.0001799406261123302,0.9995844810246836,0.038879476487636566,-0.023114487528800964,0.007150053977966309,-0.001993432641029358,-0.005980193614959717,-0.0021743178367614746
2025-09-18T12:32:07Z,-0.05770307611414095,-0.006464714490212105,0.00039520987912711105,-0.20575526356697083,-0.2545071244239807,-0.9449290633201599,-0.0032253062588972876,-0.028848025577897243,0.0002907670916828591,0.9995784632942817,0.003301616758108139,-0.02018008567392826,0.014805014245212078,-0.001966699957847595,-0.009377717971801758,-0.003377377986907959
2025-09-18T12:32:07Z,-0.05809769921882597,-0.006827460487483867,0.000750708837855777,-0.20622597634792328,-0.25410693883895874,-0.9449341297149658,-0.0034013814674230627,-0.02904587666288953,0.00047434472124422507,0.9995720846674304,-0.0080253379419446,-0.021059053018689156,0.015089830383658409,-0.003414347767829895,-0.013962745666503906,-0.0027861595153808594
2025-09-18T12:32:07Z,-0.058492172735445824,-0.007190343714157951,0.0011060591138144736,-0.2066965103149414,-0.25370657444000244,-0.9449388980865479,-0.0035774549837935938,-0.029243714442751013,0.0006579190303107873,0.9995655844971534,-0.019352292641997337,-0.02193802036345005,0.01537464652210474,-0.004862159490585327,-0.018547922372817993,-0.0021952390670776367
2025-09-18T12:32:07Z,-0.05899268964020292,-0.007592644276087225,0.0013860435550119186,-0.207248255610466,-0.2532798647880554,-0.9449325203895569,-0.0037742227612359877,-0.029494481929467912,0.0008046765055054352,0.9995573618561828,-0.017756536602973938,-0.025938842445611954,0.010749561712145805,-0.006387963891029358,-0.0206567645072937,-0.0011857151985168457
2025-09-18T12:32:07Z,-0.05958271100265852,-0.00780186205694628,0.0015537472649097845,-0.20785251259803772,-0.2530546188354492,-0.9448601603507996,-0.0038760489774339172,-0.02978974630094304,0.0008927195718515098,0.9995481448396235,-0.005348465405404568,-0.03217438608407974,0.004679552745074034,-0.006927013397216797,-0.023791402578353882,-0.0012229084968566895
2025-09-18T12:32:07Z,-0.06029818299576366,-0.0077531442456626465,0.0015523893130566194,-0.20852738618850708,-0.2531013786792755,-0.9446989297866821,-0.0038514021243249764,-0.030147299626762766,0.0008926932268657773,0.9995375374730844,0.009072641842067242,-0.03566616773605347,-0.003202360589057207,-0.0062694549560546875,-0.025564044713974,-0.0034497976303100586
2025-09-18T12:32:07Z,-0.061012070203182805,-0.007328054948290787,0.001416353026846754,-0.20915980637073517,-0.2535281181335449,-0.9444446563720703,-0.0036407137908013036,-0.030503687994705774,0.0008195996494377407,0.9995275866389531,0.03155945986509323,-0.03678902983665466,-0.010599466040730476,-0.006747394800186157,-0.025406599044799805,-0.002873361110687256
2025-09-18T12:32:07Z,-0.06176874209100821,-0.006355007346822174,0.0012300065605980507,-0.20981065928936005,-0.2544858157634735,-0.9440426230430603,-0.0031569921316348406,-0.0308812587002563,0.0007128264399980853,0.9995176346158147,0.05724616348743439,-0.03339612856507301,-0.014118633233010769,-0.007873833179473877,-0.024539262056350708,0.00045859813690185547
2025-09-18T12:32:08Z,-0.0623548169334848,-0.004910253122236876,0.0011089286516025305,-0.2103094458580017,-0.2558838725090027,-0.9435535669326782,-0.0024366471044039058,-0.03117362521582054,0.0006307253047623632,0.9995106376738818,0.07823599874973297,-0.02764997072517872,-0.014459867030382156,-0.005320802330970764,-0.0262221097946167,-0.0027078986167907715
2025-09-18T12:32:08Z,-0.06269150266170717,-0.0031358602187373345,0.0007455526790431995,-0.21050408482551575,-0.2576325833797455,-0.9430341720581055,-0.0015554763824828857,-0.031341167590204916,0.0004217327208683778,0.9995072643065737,0.08574263751506805,0.004732290282845497,-0.026472898200154305,0.0013139992952346802,-0.024215281009674072,-0.012021958827972412
2025-09-18T12:32:08Z,-0.062425975588572394,-0.0013417655283331031,0.00025570587893855026,-0.2100973129272461,-0.2594183385372162,-0.9426352381706238,-0.0006665660164236525,-0.031208003441824447,0.00014872752031181867,0.9995125126137264,0.0806216225028038,0.022500166669487953,-0.03850400447845459,0.0030160993337631226,-0.021462202072143555,-0.008454203605651855
2025-09-18T12:32:08Z,-0.06196090164443563,0.00021347189755870525,-0.0006083109746028744,-0.2094089686870575,-0.261031836271286,-0.9423429369926453,9.726337233176344e-05,-0.030975531342508703,-0.00030731578175796366,0.9995199221264207,0.0657627210021019,0.028581390157341957,-0.05585173889994621,0.004881724715232849,-0.016557425260543823,-0.0030161142349243164
2025-09-18T12:32:08Z,-0.061429161162529465,0.0015380036569367678,-0.0017551057893159965,-0.2085879147052765,-0.2624671459197998,-0.9421263337135315,0.0007416894511165274,-0.03071041042910989,-0.0009007546267556838,0.9995274705546882,0.05209862440824509,0.023535285145044327,-0.0642831102013588,0.004846170544624329,-0.013311505317687988,0.005704343318939209
2025-09-18T12:32:08Z,-0.061079472541400184,0.0025809937712536726,-0.0031025511277819927,-0.20789052546024323,-0.26366353034973145,-0.9419464468955994,0.0012425252339360246,-0.0305369318399591,-0.0015899557471013746,0.999531477228012,0.0434863455593586,0.009424669668078423,-0.07464644312858582,0.005657464265823364,-0.012564748525619507,0.01147305965423584
2025-09-18T12:32:08Z,-0.06116684368677529,0.003593811214851434,-0.0046701674365490905,-0.20754753053188324,-0.2648633122444153,-0.9416854381561279,0.0017246560936402906,-0.03058271920167841,-0.0023889329285367313,0.9995277788174997,0.045382726937532425,-0.0009017344564199448,-0.07737148553133011,0.006010770797729492,-0.011009305715560913,0.011659681797027588
2025-09-18T12:32:08Z,-0.0612526392846629,0.004606788230281757,-0.006237702388862813,-0.20720258355140686,-0.26606234908103943,-0.9414233565330505,0.002206797279349009,-0.030628485013384284,-0.003187908613821678,0.9995232354562439,0.04727910831570625,-0.011228138580918312,-0.080096535384655,0.006362125277519226,-0.0094546377658844,0.011845290660858154
2025-09-18T12:32:08Z,-0.06153916885683845,0.005723085860426218,-0.007858694558967554,-0.20703035593032837,-0.2673667073249817,-0.9410916566848755,0.0027392783658224122,-0.030775609736283474,-0.004015495649777578,0.9995143306204258,0.05038616433739662,-0.015311794355511665,-0.08052557706832886,0.006719738245010376,-0.008044004440307617,0.008054196834564209
2025-09-18T12:32:08Z,-0.061806303166916626,0.006891318920565353,-0.009405312556398232,-0.206857830286026,-0.2687084972858429,-0.9407473206520081,0.0032986674702608285,-0.030913908603950373,-0.004806829865184869,0.9995048965654838,0.05293050408363342,-0.015118962153792381,-0.07857054471969604,0.007326528429985046,-0.00426483154296875,0.006293535232543945
2025-09-18T12:32:08Z,-0.06210289833577163,0.008034386416173711,-0.01086946459638237,-0.20673441886901855,-0.2700131833553314,-0.9404008388519287,0.0038464599319687053,-0.031067575197494278,-0.005556759889944387,0.9994943405807963,0.04723285511136055,-0.014900163747370243,-0.07319215685129166,0.007986262440681458,-0.001730591058731079,0.0014184117317199707
2025-09-18T12:32:08Z,-0.06233085989765092,0.008998454062103102,-0.012200157484025047,-0.20658384263515472,-0.271126925945282,-0.9401134252548218,0.004306866191603352,-0.031186926313586348,-0.0062372124626475425,0.9994846915640873,0.03564651310443878,-0.010568082332611084,-0.06456533074378967,0.006383106112480164,0.00016605854034423828,4.2319297790527344e-05
2025-09-18T12:32:08Z,-0.06247916042578001,0.009762235905057917,-0.013407130764113128,-0.20639382302761078,-0.272031307220459,-0.939893901348114,0.004669229458126645,-0.031266133782581085,-0.006852620722927861,0.9994765751019967,0.02746746316552162,-0.009710602462291718,-0.05291493237018585,0.006342828273773193,9.745359420776367e-05,0.004051327705383301
