timestamp,attitude_roll,attitude_pitch,attitude_yaw,gravity_x,gravity_y,gravity_z,quaternion_x,quaternion_y,quaternion_z,quaternion_w,rotation_rate_x,rotation_rate_y,rotation_rate_z,user_acceleration_x,user_acceleration_y,user_acceleration_z
2025-09-18T12:32:09Z,-0.06870921916424667,0.0425716169381588,0.006144122047728043,-0.2167023867368698,-0.30015185475349426,-0.9289504289627075,0.02137704135324553,-0.03427456937133511,0.0023384850301863963,0.9991808378272818,0.044996701180934906,0.002002228982746601,-0.022770440205931664,0.0015011876821517944,-0.021699756383895874,-0.0028163790702819824
2025-09-18T12:32:09Z,-0.0686788146894025,0.04365456629745948,0.005682654921011944,-0.21653199195861816,-0.3012417256832123,-0.9286373257637024,0.02191012471512571,-0.03426236963343834,0.0020896460805494613,0.9991703623079184,0.058008842170238495,9.815068915486336e-05,-0.027537265792489052,0.0008476227521896362,-0.02141609787940979,-0.002478301525115967
2025-09-18T12:32:09Z,-0.06870474212643826,0.04494067908258311,0.005137199556427298,-0.21638771891593933,-0.3025350570678711,-0.9282504320144653,0.02254331950941126,-0.03427915775173247,0.0017947433612288963,0.9991562612645012,0.06417292356491089,-0.0023050582967698574,-0.029427476227283478,0.0004300028085708618,-0.021779805421829224,-0.0018945932388305664
2025-09-18T12:32:09Z,-0.06880550050213452,0.04633432959433535,0.004598604111930234,-0.2163122296333313,-0.30392786860466003,-0.927812933921814,0.023230392870454124,-0.03433341637477462,0.0015005392476220168,0.9991391438329871,0.06552103161811829,-0.00806946586817503,-0.028771696612238884,-0.000562131404876709,-0.02107340097427368,0.0006022453308105469
2025-09-18T12:32:09Z,-0.06904651302367334,0.047713756252442736,0.004113100571622486,-0.21638064086437225,-0.3052985966205597,-0.9273468255996704,0.023911318712915137,-0.03445748047063036,0.001231364795290827,0.9991191647316889,0.06362992525100708,-0.01136222667992115,-0.025949135422706604,0.0002116560935974121,-0.01883789896965027,0.0022234320640563965
2025-09-18T12:32:09Z,-0.06928688418505285,0.04909332415522976,0.0036278897211701315,-0.21644814312458038,-0.30666878819465637,-0.9268788695335388,0.024592243330071248,-0.034581531892601304,0.0009621852079853692,0.9990986412481911,0.06173882260918617,-0.014654988422989845,-0.023126576095819473,0.0009845346212387085,-0.016602933406829834,0.003842651844024658
2025-09-18T12:32:09Z,-0.06956245499110329,0.05038306685198607,0.003292049492692209,-0.21658866107463837,-0.3079313039779663,-0.9264273643493652,0.02523082504611358,-0.034721702975561715,0.0007685844251951937,0.9990780472025533,0.056362856179475784,-0.013977914117276669,-0.01712547428905964,-0.000998660922050476,-0.01575922966003418,0.004454076290130615
2025-09-18T12:32:09Z,-0.06982705742106605,0.0514883015167195,0.0030345188166377855,-0.21674300730228424,-0.3090082108974457,-0.9260326027870178,0.025778537917069928,-0.034855800876597176,0.0006172953331157122,0.9990595220813004,0.047894760966300964,-0.014611500315368176,-0.011431831866502762,-0.00019147992134094238,-0.013362675905227661,0.005231320858001709
2025-09-18T12:32:09Z,-0.07010516822175461,0.0524046478599898,0.0028915036058951306,-0.21694345772266388,-0.30989009141921997,-0.9256908893585205,0.02623385768414566,-0.03499549020056643,0.0005262020074483566,0.999042823971835,0.03803008049726486,-0.01230105571448803,-0.005064517725259066,-0.0005530565977096558,-0.013012468814849854,0.003867030143737793
2025-09-18T12:32:09Z,-0.07032391851502551,0.0531186175887045,0.0028630391706522275,-0.21712298691272736,-0.31056445837020874,-0.9254227876663208,0.02659005420183905,-0.035104291571687776,0.0004965553571602982,0.9990296249966588,0.02738620527088642,-0.006933614611625671,-0.000691449735313654,0.0002650022506713867,-0.014792174100875854,0.003215014934539795
2025-09-18T12:32:09Z,-0.07044554699363156,0.05363203987683831,0.0028665727331541203,-0.21722522377967834,-0.31104567646980286,-0.9252371788024902,0.02684660704905994,-0.035164391723168376,0.00048765653889982607,0.9990206324017548,0.018665557727217674,-0.004563322756439447,0.0006193695589900017,0.0006162077188491821,-0.013233572244644165,0.0019404292106628418
2025-09-18T12:32:09Z,-0.07053981681206133,0.05402325614831931,0.002884019105137366,-0.2173084020614624,-0.3114100694656372,-0.9250950217247009,0.02704235183364679,-0.03521077810756455,0.0004882030517975435,0.9990137398485209,0.010484880767762661,-0.003034534864127636,0.0010704054730013013,0.0012915879487991333,-0.013513833284378052,0.0012036561965942383
2025-09-18T12:32:09Z,-0.07054581845262516,0.05423634867876693,0.002904938125611079,-0.2173147350549698,-0.31160682439804077,-0.9250273108482361,0.027149161819762943,-0.03521323613380859,0.0004948109024834347,0.9990107729466463,0.0047073266468942165,-0.00039012404158711433,-0.00045940675772726536,0.0013584345579147339,-0.015653282403945923,0.0020911097526550293
2025-09-18T12:32:09Z,-0.0706101197485234,0.054247563378245045,0.002843203186852908,-0.21735790371894836,-0.311626672744751,-0.9250105023384094,0.02715369112313604,-0.035246179095745726,0.0004629030865166242,0.9990095190432574,-0.002980530261993408,-0.0007759109139442444,-0.002772870007902384,0.0021061450242996216,-0.017016887664794922,0.0009739398956298828
2025-09-18T12:32:09Z,-0.07053015866605775,0.05411196237263063,0.0027429057221810627,-0.21726080775260925,-0.31151464581489563,-0.9250710010528564,0.027084174088277384,-0.035207757979732766,0.000416281675807842,0.9990127661146516,-0.010851102881133556,0.007343878969550133,-0.006728603970259428,0.002494633197784424,-0.01955905556678772,-0.00021207332611083984
2025-09-18T12:32:09Z,-0.07029131850718172,0.05383462166942114,0.0025697476910655705,-0.2170008271932602,-0.31128063797950745,-0.9252107739448547,0.02694255436721748,-0.035091112632400515,0.0003378977042333366,0.9990206477880846,-0.019622372463345528,0.013897718861699104,-0.005007125902920961,-0.00048294663429260254,-0.01818910241127014,0.003938555717468262
2025-09-18T12:32:09Z,-0.06990265874738265,0.05337832213015399,0.0025056949031680574,-0.21663445234298706,-0.3108621835708618,-0.925437331199646,0.026713443324964926,-0.03489833557886417,0.0003191154378051898,0.9990335258981936,-0.027432478964328766,0.022763241082429886,0.005427563097327948,-0.0011702179908752441,-0.018905073404312134,0.0021282434463500977
2025-09-18T12:32:09Z,-0.06931169672552244,0.05278148134521083,0.00245690679440333,-0.21608766913414001,-0.310309499502182,-0.9257505536079407,0.02641436782946786,-0.034604430456230524,0.0003129840389496354,0.9990517127028269,-0.03766157478094101,0.04162544757127762,-0.0008353092707693577,0.004916191101074219,-0.021715641021728516,-0.004876375198364258
2025-09-18T12:32:09Z,-0.06808581293577495,0.05186553020764526,0.0022746396270672477,-0.21492449939250946,-0.309477299451828,-0.9262997508049011,0.025953520475504775,-0.033995398706135035,0.0002537214157304065,0.9990847055246548,-0.06250177323818207,0.0647343173623085,-0.006837987340986729,0.005558520555496216,-0.017406493425369263,0.0003809928894042969
2025-09-18T12:32:09Z,-0.0667096779776068,0.05025939361996276,0.001973057297125703,-0.2136041224002838,-0.3080146908760071,-0.9270923733711243,0.02514595771565216,-0.03331334101494497,0.00014771517253395926,0.9991283563716608,-0.10755287110805511,0.06906642019748688,-0.010197967290878296,0.005498528480529785,-0.012450039386749268,0.006171107292175293
2025-09-18T12:32:09Z,-0.06533672794911646,0.047588956096528724,0.0016618748397323265,-0.2123035341501236,-0.3055523633956909,-0.9282052516937256,0.023806667344962357,-0.032633543260724346,5.314377617838383e-05,0.9991836206990002,-0.1658056378364563,0.06758612394332886,-0.004830153658986092,0.004501059651374817,-0.011816471815109253,0.007649540901184082
2025-09-18T12:32:09Z,-0.06399760497095114,0.04375419271499873,0.0012920477462989275,-0.21103855967521667,-0.3020009994506836,-0.9296548366546631,0.021884815721408615,-0.03197156038920914,-5.4327099822373156e-05,0.9992489780371961,-0.22334741055965424,0.06412635743618011,-0.005521133542060852,0.005558669567108154,-0.014735311269760132,0.011972010135650635
2025-09-18T12:32:09Z,-0.06277149984504271,0.03867537596269781,0.0007859943437157007,-0.20986218750476837,-0.2972930669784546,-0.9314368963241577,0.019339292736219506,-0.03136713932981359,-0.0002140604805612112,0.999320570004483,-0.2988094091415405,0.06088396534323692,-0.015780115500092506,0.006601303815841675,-0.0062479376792907715,0.0046732425689697266
2025-09-18T12:32:09Z,-0.06132052023705272,0.031356116735753455,0.00013335217617340284,-0.20847229659557343,-0.290483295917511,-0.9338943958282471,0.0156720939312299,-0.030650648846817716,-0.00041396199413810074,0.9994070500210765,-0.4535587430000305,0.09095069020986557,0.0010094065219163895,0.006825372576713562,0.017305314540863037,-0.017723917961120605
2025-09-18T12:32:09Z,-0.0587155770913964,0.019855927943425198,5.891539709533618e-06,-0.20619802176952362,-0.2796168625354767,-0.9377082586288452,0.00992361083831289,-0.029352100097753905,-0.0002884721876420568,0.9995196827706377,-0.7085740566253662,0.18809324502944946,0.06524176895618439,0.004945248365402222,0.04136297106742859,-0.04027348756790161
2025-09-18T12:32:09Z,-0.053934600136625425,0.002843400120289813,0.0013087042170659825,-0.20230065286159515,-0.26324930787086487,-0.943278431892395,0.001438826528643874,-0.02696307270392653,0.0006157788187747409,0.9996350531836472,-0.9798615574836731,0.29451411962509155,0.15782365202903748,-0.00477735698223114,0.03771476447582245,-0.03454136848449707
2025-09-18T12:32:09Z,-0.047282422616589305,-0.018885489202808272,0.004316061888672496,-0.1970626413822174,-0.24202954769134521,-0.9500463008880615,-0.00938893364372282,-0.023658275521808592,0.0023805437595880905,0.9996730296031897,-1.1531871557235718,0.36826375126838684,0.23989440500736237,-0.0065803974866867065,-0.0023202747106552124,-0.016079962253570557
2025-09-18T12:32:09Z,-0.039434161121099716,-0.042357107343629685,0.00858181842878699,-0.19092008471488953,-0.21882221102714539,-0.9569045901298523,-0.02108808284110179,-0.01980205357504303,0.004706617863135386,0.9995702725789978,-1.1412028074264526,0.3845136761665344,0.2662607729434967,-0.014733508229255676,-0.06165757775306702,0.023875117301940918
2025-09-18T12:32:09Z,-0.03236963911647471,-0.06345992788974618,0.012803144939122995,-0.1853896826505661,-0.19779141247272491,-0.9625535011291504,-0.031616288079764826,-0.01637869693058225,0.0069108941687106105,0.9993418505911935,-0.9304447174072266,0.28040048480033875,0.2197263091802597,-0.021123498678207397,-0.10238604247570038,0.051084041595458984
2025-09-18T12:32:09Z,-0.02785184123647226,-0.0789908815948008,0.01596893213216719,-0.18193857371807098,-0.18224570155143738,-0.9662737250328064,-0.039368990932033956,-0.01422940295699475,0.008527214172027014,0.999086924847368,-0.5963940620422363,0.15034109354019165,0.1433505266904831,-0.01973821222782135,-0.10375973582267761,0.04099828004837036
2025-09-18T12:32:09Z,-0.025795777929709367,-0.08725526389942631,0.0178973219660486,-0.18048641085624695,-0.17391695082187653,-0.9680793285369873,-0.043493121672538854,-0.013274992452674831,0.009501772413569287,0.9989201901440813,-0.22746670246124268,0.041492074728012085,0.0690145343542099,-0.011007562279701233,-0.07974754273891449,0.02347695827484131
2025-09-18T12:32:09Z,-0.025848917072239123,-0.08868121065140507,0.018524045585822223,-0.18070563673973083,-0.17243307828903198,-0.9683038592338562,-0.044200895138721503,-0.013321352654906712,0.00982486551776929,0.998885410468389,0.07457402348518372,-0.053245507180690765,-0.006660968065261841,-0.0008566677570343018,-0.03911617398262024,0.008520245552062988
2025-09-18T12:32:09Z,-0.027452008470605995,-0.08507240517451943,0.017932339830691563,-0.18208807706832886,-0.17603376507759094,-0.9673965573310852,-0.04239471308447101,-0.014093839066699525,0.009540731176796038,0.9989558735749882,0.2685611844062805,-0.09710974991321564,-0.053773898631334305,0.008536621928215027,0.0037091821432113647,-0.012456715106964111
2025-09-18T12:32:09Z,-0.029511239411525843,-0.07858915265640128,0.016716475239973366,-0.1837322860956192,-0.18252019584178925,-0.965882420539856,-0.03915558993904471,-0.015071490098812488,0.008930405465209687,0.999079453895326,0.3634270429611206,-0.09540905803442001,-0.0768614187836647,0.013857290148735046,0.033982470631599426,-0.020109355449676514
2025-09-18T12:32:09Z,-0.03154044962578956,-0.07051518046697022,0.015117123392332016,-0.1852320432662964,-0.1906002312898636,-0.9640335440635681,-0.03512577973897647,-0.016025728101249078,0.008108720014202276,0.9992213846978822,0.38565126061439514,-0.09767651557922363,-0.08860000222921371,0.015658393502235413,0.036471888422966,-0.01565730571746826
2025-09-18T12:32:09Z,-0.03355560741991935,-0.062437996799310023,0.013535054635158122,-0.1867133378982544,-0.19866792857646942,-0.9621170163154602,-0.031095340305068737,-0.016979669257456576,0.007286891533022956,0.9993455121607779,0.4078754484653473,-0.09994397312402725,-0.10033857822418213,0.017441049218177795,0.038949012756347656,-0.011272907257080078
2025-09-18T12:32:09Z,-0.03549652992105759,-0.05424315714679306,0.01177157662290195,-0.18806585669517517,-0.20686382055282593,-0.9601242542266846,-0.027009097960362237,-0.017900087270917176,0.006363932257546239,0.9994545380886176,0.4075029194355011,-0.09096279740333557,-0.10181572288274765,0.01983712613582611,0.03468351066112518,-0.008538365364074707
2025-09-18T12:32:09Z,-0.037237745994499485,-0.046183572172684366,0.010038422886841753,-0.18922586739063263,-0.21491014957427979,-0.9581269025802612,-0.02299202208895086,-0.01872847289718501,0.005446857733641032,0.9995452646280617,0.39700281620025635,-0.0808328315615654,-0.09801638126373291,0.018432393670082092,0.026731908321380615,-0.004699289798736572
2025-09-18T12:32:10Z,-0.038829530257956796,-0.03844947960851431,0.008408112405440172,-0.19026300311088562,-0.22261282801628113,-0.956160843372345,-0.019138165180323564,-0.01949059067149663,0.004575669610949905,0.9996162440348342,0.38238757848739624,-0.07314126193523407,-0.08980938047170639,0.01780061423778534,0.016670510172843933,0.00027740001678466797
2025-09-18T12:32:10Z,-0.040226875718533055,-0.030974340082142542,0.0070433687097396025,-0.19117721915245056,-0.23001228272914886,-0.9542251229286194,-0.015412504563113907,-0.020164075156413042,0.003832007887095177,0.9996704155444589,0.3720729351043701,-0.06789480149745941,-0.07951788604259491,0.015955448150634766,0.007058277726173401,0.006833553314208984
2025-09-18T12:32:10Z,-0.04149043587292616,-0.023689021084200085,0.005794453056329604,-0.1919882595539093,-0.23719871044158936,-0.952301025390625,-0.011781542114576328,-0.020776499012925255,0.0031420889905165684,0.9997096350420355,0.361854612827301,-0.06294446438550949,-0.07091593742370605,0.012005388736724854,-0.0013020038604736328,0.012961089611053467
2025-09-18T12:32:10Z,-0.042830785333433354,-0.016523326921812718,0.004689095420505428,-0.19290371239185333,-0.2442358285188675,-0.9503352046012878,-0.008209449988626197,-0.021432335054464725,0.0025208392059762794,0.9997332431824035,0.356507271528244,-0.0725780501961708,-0.06542094796895981,0.009327217936515808,-0.00886625051498413,0.018200576305389404
2025-09-18T12:32:10Z,-0.0443903213042815,-0.009411775686900983,0.003630519545974839,-0.19403241574764252,-0.2512013018131256,-0.9482876062393188,-0.004664418056270745,-0.022201599286996714,0.0019192306640469822,0.9997406582290235,0.35424214601516724,-0.08771748840808868,-0.06554929912090302,0.00986441969871521,-0.01394587755203247,0.015269935131072998
2025-09-18T12:32:10Z,-0.046128344301394335,-0.0024182731365862235,0.0025949259080150847,-0.1953289657831192,-0.25803765654563904,-0.946183443069458,-0.001178891588041236,-0.023063662500108297,0.001325001973038931,0.9997322938060648,0.3394845724105835,-0.08910262584686279,-0.06788632273674011,0.010325387120246887,-0.011610567569732666,0.010749876499176025
2025-09-18T12:32:10Z,-0.04782018841444347,0.004087772000943531,0.001558303757405815,-0.19657857716083527,-0.2643970251083374,-0.944166898727417,0.002061927825948217,-0.02390617023486456,0.0007300627541054235,0.9997116712020441,0.30770379304885864,-0.08445701003074646,-0.06682515889406204,0.009413301944732666,-0.006882071495056152,0.005582749843597412
2025-09-18T12:32:10Z,-0.049301843096610586,0.009901850211310598,0.0005358992470708814,-0.19763456284999847,-0.27008479833602905,-0.942334771156311,0.004956005766193187,-0.024646799764298673,0.00014583291036336665,0.9996837676815332,0.2636561393737793,-0.06701021641492844,-0.06042289361357689,0.010061800479888916,-0.0032513439655303955,0.0037338733673095703
2025-09-18T12:32:10Z,-0.0505674904532877,0.014724438757202161,-0.00039177136910161875,-0.1985190063714981,-0.27480748295783997,-0.9407821297645569,0.007354848942184221,-0.025281812140240632,-0.00038194086794104005,0.9996530519280347,0.2140488624572754,-0.057305898517370224,-0.051401618868112564,0.006812229752540588,0.0009901821613311768,0.0025620460510253906
2025-09-18T12:32:10Z,-0.05163935221588052,0.01867546461799845,-0.0010587346136389506,-0.19929702579975128,-0.2786577343940735,-0.939484179019928,0.00932081846092143,-0.0258206236430769,-0.0007702348622669449,0.999622685666629,0.17189517617225647,-0.050437942147254944,-0.031993038952350616,0.004092872142791748,1.3589859008789062e-05,0.004665732383728027
2025-09-18T12:32:10Z,-0.05292179557031133,0.020838228840073976,-0.001173926469422099,-0.2004396617412567,-0.2807258367538452,-0.9386250376701355,0.01039974939074036,-0.026462486666306833,-0.0008623879995252416,0.9995951886068438,0.14636841416358948,-0.05424024909734726,-0.021703504025936127,0.0021616369485855103,-0.0046822428703308105,0.0030395984649658203
2025-09-18T12:32:10Z,-0.054204061815228625,0.02300118034934722,-0.0012863528342369748,-0.20158074796199799,-0.2827923893928528,-0.9377599358558655,0.011478684287399366,-0.02710431302052035,-0.000954542117970073,0.9995661203924572,0.12084165960550308,-0.05804255232214928,-0.011413967236876488,0.00022886693477630615,-0.009379595518112183,0.0014075636863708496
2025-09-18T12:32:10Z,-0.05548613042925429,0.025164202184924277,-0.0013960096782105606,-0.20272022485733032,-0.28485727310180664,-0.9368889331817627,0.012557564929380649,-0.0277460856681118,-0.0010466931133742132,0.9995354720036727,0.09531490504741669,-0.06184485927224159,-0.0011244295164942741,-0.0017055124044418335,-0.014078646898269653,-0.00023031234741210938
2025-09-18T12:32:10Z,-0.05676802912407097,0.02732738162218626,-0.0015028980452723236,-0.20385806262493134,-0.2869205176830292,-0.9360120296478271,0.013636436520485237,-0.028387814682243294,-0.0011388426615953494,0.9995031295754587,0.06978815793991089,-0.06564716249704361,0.00916510820388794,-0.0036415308713912964,-0.018779337406158447,-0.0018741488456726074
2025-09-18T12:32:10Z,-0.05805205348140877,0.028759840024545662,-0.0011559326688489722,-0.2051263302564621,-0.2882232367992401,-0.9353344440460205,0.014356595612249782,-0.02902725818620029,-0.0009949823254308938,0.9994748429861007,0.062474727630615234,-0.05662912130355835,0.026807958260178566,-0.006319865584373474,-0.022506296634674072,-0.0035465359687805176
2025-09-18T12:32:10Z,-0.059184930557750814,0.030075387832082513,-0.0005236685296555784,-0.2063281536102295,-0.28937187790870667,-0.9347152709960938,0.015022799353668318,-0.02958874073461154,-0.0007066110192267153,0.9994488330652137,0.06687111407518387,-0.04772815480828285,0.025698373094201088,-0.0009822100400924683,-0.03250971436500549,-0.01145780086517334
2025-09-18T12:32:10Z,-0.05970581265501599,0.03147294144912366,0.00010141244836095029,-0.2069537192583084,-0.2905985116958618,-0.9341962933540344,0.01573032571278659,-0.029843983842076455,-0.0004190130858692949,0.9994305375941617,0.07046903669834137,-0.01479986310005188,0.025308677926659584,0.0005629956722259521,-0.03295576572418213,-0.010423600673675537
2025-09-18T12:32:10Z,-0.060039627418902126,0.032832474145629245,0.0005608760268495705,-0.20736148953437805,-0.29181352257728577,-0.933726966381073,0.01641652202932948,-0.030006663132317694,-0.0002124425322768435,0.9994146834959494,0.0642256960272789,-0.014880990609526634,0.014092517085373402,0.0008385628461837769,-0.02705860137939453,-0.00682443380355835
2025-09-18T12:32:10Z,-0.06037691588636864,0.03399973066592594,0.0008346878563895568,-0.20772714912891388,-0.2928744852542877,-0.9333134293556213,0.017003897167376984,-0.03017242159847211,-9.600368131612289e-05,0.9993999279073441,0.05094975605607033,-0.01860954985022545,0.008589725941419601,-7.607042789459229e-05,-0.021427154541015625,-0.0057457685470581055
2025-09-18T12:32:10Z,-0.06078251688874153,0.034930451815059944,0.00100297304544502,-0.20813293755054474,-0.29372769594192505,-0.9329548478126526,0.017471509026778635,-0.030373191046088033,-2.9503073009994245e-05,0.9993858192291053,0.04249121993780136,-0.022203797474503517,0.004454152658581734,0.0005735456943511963,-0.01703658699989319,-0.00025653839111328125
2025-09-18T12:32:10Z,-0.0613320623824051,0.03580334339789439,0.0011057399620309387,-0.20865663886070251,-0.2945359945297241,-0.9325829744338989,0.017909247191535367,-0.030646418270404763,3.6635785817720804e-06,0.9993697332741522,0.04232625663280487,-0.03139381855726242,0.003078704234212637,0.0008668303489685059,-0.016518235206604004,0.0037962794303894043
2025-09-18T12:32:10Z,-0.062039438573718665,0.036698246661782806,0.001260296031799546,-0.2093401551246643,-0.29535695910453796,-0.932170033454895,0.01835880564552851,-0.03099796423545059,6.067736240072687e-05,0.9993507305950149,0.046249695122241974,-0.03394833207130432,0.0064947959035634995,0.0002561211585998535,-0.016158968210220337,0.004701554775238037
2025-09-18T12:32:10Z,-0.06276503767118448,0.03770663798083529,0.0014447256784622014,-0.21004576981067657,-0.2962802052497864,-0.9317182302474976,0.01886557962063749,-0.03135817729397628,0.0001303462696287025,0.9993299718370683,0.04894813895225525,-0.03298302739858627,0.009632991626858711,0.000702396035194397,-0.016813665628433228,0.004534482955932617
2025-09-18T12:32:10Z,-0.06343016002249192,0.03879352768610433,0.0017079286694857857,-0.2107134908437729,-0.2972652316093445,-0.9312535524368286,0.019412864883466236,-0.03168723892318715,0.00023834601580710084,0.9993090509262625,0.05470924451947212,-0.03225162625312805,0.009078382514417171,0.0003131181001663208,-0.01625847816467285,-0.00034117698669433594
2025-09-18T12:32:10Z,-0.06402020465906387,0.03991561711783775,0.0019548990914813325,-0.21130585670471191,-0.2982855439186096,-0.9307929873466492,0.019977531302528374,-0.031978756636152295,0.00033805423279319863,0.9992886298852495,0.05262882262468338,-0.02433622069656849,0.008012848906219006,0.0018722862005233765,-0.014484316110610962,-0.0034887194633483887
2025-09-18T12:32:10Z,-0.06450963048035877,0.0409643955678343,0.002194180627635215,-0.21180346608161926,-0.29923757910728455,-0.9303742051124573,0.020505476724606227,-0.03221998661579611,0.00043580093223186844,0.9992701741608939,0.04864472523331642,-0.01901594176888466,0.007047957740724087,0.002245098352432251,-0.010757744312286377,-0.0023395419120788574
2025-09-18T12:32:10Z,-0.06489164605762919,0.04184406822089344,0.002433168837225771,-0.2122039645910263,-0.30003005266189575,-0.9300276637077332,0.02094894254564396,-0.03240757415511246,0.0005370140456359422,0.9992548517787831,0.03831517696380615,-0.013491485267877579,0.014629337936639786,0.0002591162919998169,-0.005854606628417969,-0.00046759843826293945
2025-09-18T12:32:10Z,-0.06530444173495636,0.042493069558907276,0.0028335857784237226,-0.21267932653427124,-0.30058062076568604,-0.9297412633895874,0.021279837313600215,-0.032608940309126304,0.0007221470962249576,0.9992411825566383,0.0312558189034462,-0.020479153841733932,0.017292851582169533,0.00302046537399292,-0.00790974497795105,-0.0024968981742858887
2025-09-18T12:32:10Z,-0.06549765386675391,0.043005869930175175,0.003222634819072831,-0.21295006573200226,-0.3010044991970062,-0.9295421242713928,0.021542472777894818,-0.03270074150115543,0.0009060654649606939,0.999232377611544,0.023815501481294632,-0.007155608385801315,0.01632789522409439,0.00552716851234436,-0.009576350450515747,-0.0021356940269470215
