timestamp,attitude_roll,attitude_pitch,attitude_yaw,gravity_x,gravity_y,gravity_z,quaternion_x,quaternion_y,quaternion_z,quaternion_w,rotation_rate_x,rotation_rate_y,rotation_rate_z,user_acceleration_x,user_acceleration_y,user_acceleration_z
2025-09-16T01:54:49Z,-0.17302786455903718,0.2458427286653362,-0.186568987440721,-0.16698922216892242,-0.243373841047287,-0.9554495215415955,0.11363444800732389,-0.09675975399566794,-0.10264903208344427,0.9834571066652258,0.04085796698927879,0.0018913224339485168,-0.001810279325582087,0.0010959357023239136,-0.005758419632911682,0.0005718469619750977
2025-09-16T01:54:49Z,-0.17293797012098397,0.2468989668844691,-0.18648957465191163,-0.1668590009212494,-0.24439819157123566,-0.9552107453346252,0.11416331196700062,-0.09675407334945849,-0.10264391894561253,0.983396971422133,0.06013960391283035,-0.003279185388237238,-0.0016023064963519573,0.00018124282360076904,-0.007080435752868652,0.003374338150024414
2025-09-16T01:54:49Z,-0.17284815841227869,0.24795521662814213,-0.18641024466706485,-0.16672872006893158,-0.24542227387428284,-0.9549708962440491,0.11469214614150014,-0.09674837776785733,-0.10263878311363628,0.9833365381817101,0.07942123711109161,-0.008449693210422993,-0.0013943336671218276,-0.0007335245609283447,-0.008402764797210693,0.006175637245178223
2025-09-16T01:54:49Z,-0.17275834935949844,0.249011419949972,-0.1863309333231446,-0.16659830510616302,-0.24644604325294495,-0.9547299742698669,0.11522093567247492,-0.09674262998086705,-0.10263359471673097,0.9832757473735969,0.09870287775993347,-0.013620201498270035,-0.0011863608378916979,-0.0016484260559082031,-0.009725376963615417,0.00897592306137085
2025-09-16T01:54:49Z,-0.1730670526772286,0.25110394242779455,-0.18606672520873088,-0.16680385172367096,-0.24847348034381866,-0.954168438911438,0.11624867577548274,-0.09696402776497429,-0.10259873747925491,0.9831366105041945,0.14477799832820892,-0.0315517894923687,-0.0051845526322722435,-0.0017499029636383057,-0.010834157466888428,0.010718047618865967
2025-09-16T01:54:49Z,-0.17392416570220173,0.2543594730754151,-0.18572116995726096,-0.16748075187206268,-0.25162559747695923,-0.9532233476638794,0.11782492793840718,-0.09749670046778584,-0.10259938508701165,0.982896164494347,0.1975054144859314,-0.051889389753341675,-0.010653364472091198,-0.0008331388235092163,-0.006148308515548706,0.006116926670074463
2025-09-16T01:54:49Z,-0.17516288356613227,0.2585674732350909,-0.18523207132286965,-0.16847538948059082,-0.25569596886634827,-0.9519640803337097,0.11985733977073774,-0.09824545761172936,-0.10258893765893852,0.9825769338492997,0.23237738013267517,-0.06636129319667816,-0.01279188971966505,0.0006237924098968506,0.002359330654144287,0.0004420280456542969
2025-09-16T01:54:49Z,-0.17665156213875216,0.2633001462653951,-0.18468026048284114,-0.16967780888080597,-0.2602684199810028,-0.9505102634429932,0.12213787635079804,-0.09913220900772357,-0.10258484737534909,0.9822073895522709,0.24633784592151642,-0.07626082748174667,-0.014685277827084064,0.0020944923162460327,0.00994160771369934,-0.002980172634124756
2025-09-16T01:54:49Z,-0.17836969830252758,0.2681112733533412,-0.18410482968789962,-0.17108650505542755,-0.2649106979370117,-0.9489740133285522,0.12444590366102418,-0.10013087742640661,-0.1025894489933354,0.9818158411419067,0.24097001552581787,-0.08160814642906189,-0.014292573556303978,0.0030899792909622192,0.012920975685119629,-0.0040978193283081055
2025-09-16T01:54:49Z,-0.1801164354654153,0.27272253336646585,-0.1835271942910644,-0.17252318561077118,-0.2693544030189514,-0.9474618434906006,0.12665373889943177,-0.10113307406372624,-0.10259079444979415,0.9814305549633034,0.23163503408432007,-0.08334868401288986,-0.012171526439487934,0.0036003142595291138,0.011901319026947021,-0.002968013286590576
2025-09-16T01:54:49Z,-0.18181859080371304,0.2770546075423286,-0.18299445101496833,-0.17392303049564362,-0.27352380752563477,-0.9460102915763855,0.12872381264360686,-0.1021030003958228,-0.10260411424160538,0.9810593217298349,0.22398681938648224,-0.08065550029277802,-0.011132149025797844,0.004319906234741211,0.010484069585800171,-0.0038459300994873047
2025-09-16T01:54:49Z,-0.18333967606957682,0.28103362570651313,-0.1824837343910764,-0.17516198754310608,-0.27734893560409546,-0.9446670413017273,0.13062805055389978,-0.10296979145329077,-0.10260597818749616,0.9807167715083366,0.21270659565925598,-0.06893095374107361,-0.010855920612812042,0.004466012120246887,0.006734967231750488,-0.0026054978370666504
2025-09-16T01:54:49Z,-0.18468595231003887,0.2848633964480373,-0.18202936201993652,-0.17623725533485413,-0.2810263931751251,-0.9433793425559998,0.13246462082545074,-0.10374703813693954,-0.10262074621629606,0.9803869022565577,0.21107685565948486,-0.06552571058273315,-0.015402591787278652,0.0032652318477630615,0.0006976425647735596,0.0002601146697998047
2025-09-16T01:54:49Z,-0.18600275148832235,0.28871812265760977,-0.18166734102020582,-0.17727769911289215,-0.284723699092865,-0.9420748353004456,0.13430973974588906,-0.10451533903988387,-0.10268202515920187,0.9800478600491325,0.21240082383155823,-0.06702302396297455,-0.02232990972697735,0.002632230520248413,-0.0008507668972015381,0.001118302345275879
2025-09-16T01:54:49Z,-0.1872787497123601,0.2926867971046381,-0.18140268695732553,-0.17826785147190094,-0.28852584958076477,-0.9407302737236023,0.13620732287210552,-0.10527312039218631,-0.10279492589140078,0.9796929632899924,0.2126750946044922,-0.0668112114071846,-0.021793395280838013,0.0007149726152420044,0.002546459436416626,-0.0008438229560852051
2025-09-16T01:54:49Z,-0.18851227894272843,0.2966546956160624,-0.18104623890747448,-0.17921218276023865,-0.29232272505760193,-0.9393776655197144,0.13811098862647694,-0.10600239534356935,-0.10286205323421584,0.9793406821242335,0.21519999206066132,-0.06198669970035553,-0.013051406480371952,-1.7583370208740234e-05,0.005240768194198608,-0.0036764144897460938
2025-09-16T01:54:49Z,-0.18984180203278248,0.300813331303894,-0.18001049719887222,-0.18022997677326202,-0.296297162771225,-0.9379366636276245,0.1401390584976762,-0.10673667846023271,-0.10261310149516273,0.9789988373153371,0.22417563199996948,-0.05614890530705452,0.010297817178070545,-0.00022935867309570312,0.007837504148483276,-0.0053307414054870605
2025-09-16T01:54:49Z,-0.19117759036023815,0.30497066607048173,-0.17896761150966517,-0.1812470704317093,-0.30026525259017944,-0.9364776015281677,0.1421664583992596,-0.10747045416734545,-0.1023636526079282,0.9786522843078506,0.23315125703811646,-0.05031111091375351,0.03364704176783562,-0.000441819429397583,0.010427922010421753,-0.007003068923950195
2025-09-16T01:54:49Z,-0.1925751271287592,0.30915782126652686,-0.176307401138568,-0.1823134422302246,-0.3042565584182739,-0.9349811673164368,0.14429270992567184,-0.10811583049289557,-0.10133134876005351,0.9783773815321098,0.24542862176895142,-0.02927970141172409,0.09532586485147476,0.0012410134077072144,0.021147966384887695,-0.013385534286499023
2025-09-16T01:54:49Z,-0.1939862617149005,0.313341453181648,-0.1736374622394439,-0.18338565528392792,-0.3082391619682312,-0.9334657788276672,0.14641809793873242,-0.10876055017482003,-0.10029842718511889,0.9780965786027008,0.2577059864997864,-0.00824829377233982,0.1570046842098236,0.0029297471046447754,0.03185933828353882,-0.019786953926086426
2025-09-16T01:54:49Z,-0.19537320932465743,0.31757474079292836,-0.16842743949966885,-0.18442517518997192,-0.312263548374176,-0.9319221377372742,0.1487088567139602,-0.10919987585515921,-0.09802716598000877,0.9779322951249425,0.2926039695739746,0.03664831817150116,0.28924673795700073,0.006693333387374878,0.05161207914352417,-0.024509012699127197
2025-09-16T01:54:49Z,-0.19680587125122362,0.32216864365010806,-0.15931302449262288,-0.18547765910625458,-0.3166244328022003,-0.930240273475647,0.15139026600351604,-0.10936560294012698,-0.09386949064949024,0.9779102500785835,0.3741382360458374,0.10645714402198792,0.48827826976776123,0.005887448787689209,0.07215729355812073,-0.022659659385681152
2025-09-16T01:54:49Z,-0.19869302853120366,0.32772857961349505,-0.14458943799841847,-0.18688245117664337,-0.3218933939933777,-0.9281484484672546,0.15483535988999184,-0.10932415730925193,-0.08705046783057775,0.9780062402700006,0.49382585287094116,0.18109452724456787,0.7794265747070312,0.0037346482276916504,0.10037583112716675,-0.02455270290374756
2025-09-16T01:54:49Z,-0.20122820707619543,0.33479956926530263,-0.12240860158559627,-0.1887752264738083,-0.32857993245124817,-0.9254183769226074,0.15940810279525364,-0.10899482026584172,-0.07671069393405638,0.9781740462219568,0.6409850716590881,0.2950408160686493,1.1526795625686646,-0.00045377016067504883,0.13932082056999207,-0.02910315990447998
2025-09-16T01:54:49Z,-0.20502888347071982,0.34407345678168255,-0.08317604355406864,-0.19166240096092224,-0.3373246490955353,-0.9216710925102234,0.16595151669743316,-0.10781716623279086,-0.058250764341526484,0.9784897628679347,0.8038104772567749,0.4568997025489807,1.6431522369384766,-0.0062827467918396,0.14721156656742096,-0.033801496028900146
2025-09-16T01:54:49Z,-0.20922702683975,0.353199330794917,-0.04377479148707539,-0.19488248229026794,-0.3459014594554901,-0.9178087711334229,0.1724310373796438,-0.10659799863510688,-0.03976840769672905,0.9784286844886486,0.9666358828544617,0.6187586188316345,2.133625030517578,-0.011778831481933594,0.15493442118167877,-0.038614869117736816
2025-09-16T01:54:49Z,-0.2139892327014614,0.36338938305827523,0.008375971886916814,-0.19849221408367157,-0.35544437170028687,-0.9133784174919128,0.18010163507884294,-0.10427936063771877,-0.015201054892960867,0.9779866903168517,1.1123906373977661,0.7993016839027405,2.5661020278930664,-0.023423627018928528,0.13561826944351196,-0.032243192195892334
2025-09-16T01:54:50Z,-0.21906329452606033,0.3744693112603268,0.07019556207208463,-0.20225587487220764,-0.36577871441841125,-0.9084593653678894,0.18868199617190065,-0.10084343506251073,0.013935446264602566,0.9767473093204658,1.2284042835235596,0.9456049203872681,2.876861333847046,-0.03977130353450775,0.09350365400314331,-0.01673746109008789
2025-09-16T01:54:50Z,-0.22454479662685392,0.3860742777109582,0.1381654082857965,-0.2062734216451645,-0.37655460834503174,-0.9031378030776978,0.1977680033638229,-0.09653450933064986,0.045877227190014164,0.9744044117869483,1.2891746759414673,1.0306676626205444,3.0264170169830322,-0.05043184757232666,0.03764978051185608,-0.0026190876960754395
2025-09-16T01:54:50Z,-0.23029834735819668,0.39731784952019245,0.2077342359520227,-0.21048644185066223,-0.38694658875465393,-0.8977571129798889,0.2066693759528968,-0.09170178158889425,0.07841533197841478,0.9709425254765404,1.2439689636230469,1.0545543432235718,2.955738067626953,-0.049860283732414246,-0.03328859806060791,-2.205371856689453e-05
2025-09-16T01:54:50Z,-0.23121723778402697,0.4039844675490524,0.259887388380712,-0.21071545779705048,-0.393085241317749,-0.8950324058532715,0.2122453024048169,-0.08623065185661735,0.1031496245016773,0.9679236551007486,0.9868582487106323,0.9638969302177429,2.4329888820648193,-0.04780291020870209,-0.09297811985015869,0.025341808795928955
2025-09-16T01:54:50Z,-0.2325165027826838,0.4105978246696153,0.3121968188572579,-0.21127451956272125,-0.3991575837135315,-0.8922086954116821,0.21767648686986849,-0.08070070481729134,0.1278135669864879,0.964244760866861,0.7297475337982178,0.8732395768165588,1.910239815711975,-0.045415446162223816,-0.15273389220237732,0.05060666799545288
2025-09-16T01:54:50Z,-0.2341959961240133,0.41713962302171076,0.36466703327179534,-0.21216216683387756,-0.40514707565307617,-0.8892936110496521,0.22295922948823949,-0.07511574346904222,0.15239037041048692,0.9599083268814097,0.47263678908348083,0.78258216381073,1.3874907493591309,-0.0426994264125824,-0.2125726044178009,0.07578015327453613
2025-09-16T01:54:50Z,-0.2318247539758134,0.41958194153877715,0.39504358331204986,-0.20982487499713898,-0.40737876296043396,-0.8888285160064697,0.2250339414370295,-0.07032398106896062,0.1670322369985346,0.9573476646996405,0.16856864094734192,0.5507950782775879,0.6974228620529175,-0.049307629466056824,-0.2526358962059021,0.1184343695640564
2025-09-16T01:54:50Z,-0.22758400703857232,0.4188450298911283,0.40491492398864715,-0.20612138509750366,-0.4067056477069855,-0.8900025486946106,0.22466461435785579,-0.06726464445316645,0.1722882403147914,0.9567225496974667,-0.12789249420166016,0.2110866904258728,-0.04876053333282471,-0.06530129909515381,-0.2579893171787262,0.15848398208618164
2025-09-16T01:54:50Z,-0.22368349839291105,0.41566337836020756,0.39635077370570926,-0.2029343694448471,-0.4037969708442688,-0.8920570015907288,0.2225369894712439,-0.06669920389761567,0.16886194804639187,0.9578695793644786,-0.38957086205482483,-0.19020035862922668,-0.7461928129196167,-0.07981984317302704,-0.23793333768844604,0.1758323311805725
2025-09-16T01:54:50Z,-0.22138085600275056,0.4105874109230759,0.3719603977647778,-0.20132721960544586,-0.39914804697036743,-0.89451003074646,0.21911032805468542,-0.06881592691341722,0.15778875895645486,0.9603945854969643,-0.6060562133789062,-0.5627434253692627,-1.3560782670974731,-0.0880359560251236,-0.20309388637542725,0.1663440465927124
2025-09-16T01:54:50Z,-0.2210609273697102,0.4040403380300021,0.3346959653694011,-0.20160970091819763,-0.3931366205215454,-0.8971048593521118,0.21463815237531017,-0.07333493297618454,0.14036125618087172,0.9637692868288615,-0.7793990969657898,-0.8723363876342773,-1.8407914638519287,-0.09300577640533447,-0.15452948212623596,0.13601356744766235
2025-09-16T01:54:50Z,-0.22248104865358065,0.3963861128156886,0.2879334715337275,-0.20354151725769043,-0.38608723878860474,-0.8997263312339783,0.20927170465073974,-0.07963776631270512,0.11816018181184117,0.9674198971777285,-0.9082624912261963,-1.0802772045135498,-2.1780338287353516,-0.0926688015460968,-0.10227799415588379,0.09585881233215332
2025-09-16T01:54:50Z,-0.2251225417299334,0.38801731856320754,0.23528667594668448,-0.20663146674633026,-0.37835392355918884,-0.9023035764694214,0.20318601749353069,-0.0869692057397363,0.09293569569060658,0.9708319528598264,-0.9757916927337646,-1.1801551580429077,-2.3601036071777344,-0.08708114922046661,-0.05373623967170715,0.05776315927505493
2025-09-16T01:54:50Z,-0.22850446837614746,0.3796943304871992,0.1802347671054578,-0.21038785576820374,-0.37063664197921753,-0.9046355485916138,0.19679322735037622,-0.09462902704647885,0.06637608803181223,0.9736076846775144,-0.9748093485832214,-1.209844708442688,-2.407010078430176,-0.0786372721195221,-0.016245096921920776,0.02304762601852417
2025-09-16T01:54:50Z,-0.23226587960442496,0.3721319556011068,0.12561245765359383,-0.2144281268119812,-0.36360234022140503,-0.9065394997596741,0.1905330193947373,-0.10211461974348486,0.03987272068682122,0.9755407901360574,-0.9161825776100159,-1.1647872924804688,-2.35800838470459,-0.0631537139415741,0.00634765625,-0.012645065784454346
2025-09-16T01:54:50Z,-0.2357641886846107,0.36583956352416724,0.0734171732315393,-0.2181282788515091,-0.35773348808288574,-0.9079905152320862,0.1847616134353678,-0.10893974323824518,0.01445872921861878,0.9766197604794732,-0.819146454334259,-1.0502145290374756,-2.214834451675415,-0.04791216552257538,0.04107147455215454,-0.042534470558166504
2025-09-16T01:54:50Z,-0.23824540485229517,0.3609732880733218,0.025882516247723916,-0.22078874707221985,-0.3531850278377533,-0.909127414226532,0.17973422658180416,-0.11459445233515139,-0.008690726420181802,0.9769790431815456,-0.6968255639076233,-0.8758399486541748,-1.9731866121292114,-0.029363632202148438,0.07648500800132751,-0.05863457918167114
2025-09-16T01:54:50Z,-0.23932852188386677,0.3573151360297102,-0.01534396765840442,-0.2220780849456787,-0.3497602641582489,-0.9101368188858032,0.17553137378998226,-0.11882890965670313,-0.028709850067343987,0.9768541178284302,-0.5731121897697449,-0.6793636083602905,-1.6855618953704834,-0.012970775365829468,0.08968004584312439,-0.05754446983337402
2025-09-16T01:54:50Z,-0.23804500833537204,0.3551920671064781,-0.04284497802102976,-0.221084326505661,-0.3477705121040344,-0.9111406803131104,0.17287029406065885,-0.12060473908997076,-0.04190733073475657,0.9766339738350048,-0.484472393989563,-0.5312602519989014,-1.4279148578643799,-0.005566790699958801,0.08260360360145569,-0.05345112085342407
2025-09-16T01:54:50Z,-0.23682520075417315,0.35303673621250264,-0.07032132719838884,-0.22014810144901276,-0.3457489013671875,-0.9121362566947937,0.17017732159594132,-0.12235831423522252,-0.05509708122601218,0.9762337133773288,-0.3958325982093811,-0.3831568956375122,-1.1702678203582764,0.0018947124481201172,0.07549533247947693,-0.0493660569190979
2025-09-16T01:54:50Z,-0.23566987447848206,0.350850784903395,-0.09777297399942513,-0.21927009522914886,-0.3436969518661499,-0.9131227135658264,0.16745294850190492,-0.12408931528268893,-0.06827667085941629,0.9756533988528611,-0.3071928322315216,-0.23505355417728424,-0.9126209020614624,0.009414434432983398,0.06835669279098511,-0.04529011249542236
2025-09-16T01:54:50Z,-0.23216345293348564,0.3497864974773321,-0.11294503717607135,-0.21615099906921387,-0.34269729256629944,-0.914241373538971,0.16611895995281337,-0.12362761960442797,-0.07532853918198652,0.9754210636618577,-0.25657519698143005,-0.15619447827339172,-0.7649755477905273,0.008184671401977539,0.06189587712287903,-0.034496843814849854
2025-09-16T01:54:50Z,-0.22867599301394773,0.3486723783380499,-0.1281070231729133,-0.21304772794246674,-0.34165042638778687,-0.9153609275817871,0.16477636589264694,-0.123159513986228,-0.08237650500201522,0.9751382477899011,-0.2059575468301773,-0.0773354172706604,-0.6173301935195923,0.006970733404159546,0.055387794971466064,-0.023702681064605713
2025-09-16T01:54:50Z,-0.22520835215205173,0.3475087360501934,-0.14325849949615588,-0.2099609524011612,-0.3405565619468689,-0.9164811372756958,0.16342525567694785,-0.12268504323426292,-0.08942020317283009,0.9748048920518537,-0.15533989667892456,0.0015236511826515198,-0.4696848392486572,0.005773276090621948,0.04883277416229248,-0.012907803058624268
2025-09-16T01:54:50Z,-0.22152976259898105,0.3465245604954601,-0.15102998240017013,-0.20666171610355377,-0.3396310806274414,-0.9175738096237183,0.1626373920636328,-0.12149965146784672,-0.09286043350407859,0.9747635075882176,-0.1436212956905365,0.02661849744617939,-0.39565813541412354,0.005260393023490906,0.040662139654159546,-0.00957953929901123
2025-09-16T01:54:50Z,-0.2178606693568418,0.34551347241042035,-0.15879472964405333,-0.20336778461933136,-0.3386799097061157,-0.9186607003211975,0.16184726542735708,-0.12031255836791653,-0.0962993666536109,0.9747084751430544,-0.13190269470214844,0.05171334370970726,-0.32163143157958984,0.004752799868583679,0.03246587514877319,-0.006257057189941406
2025-09-16T01:54:50Z,-0.2142014250043885,0.3444756565874339,-0.1665526597461253,-0.20007944107055664,-0.33770322799682617,-0.919741690158844,0.1610548906179062,-0.11912380865504386,-0.09973697309306051,0.9746400331690147,-0.12018410116434097,0.07680819183588028,-0.24760469794273376,0.0042507946491241455,0.024244099855422974,-0.0029404759407043457
2025-09-16T01:54:50Z,-0.21082218364573785,0.342711333140888,-0.17226776996097148,-0.1970946490764618,-0.33604204654693604,-0.9209937453269958,0.1600243110360483,-0.11787854077555487,-0.10217174709343908,0.9747089997148173,-0.1167004406452179,0.08529120683670044,-0.19614410400390625,0.003627181053161621,0.017884522676467896,-0.0010016560554504395
2025-09-16T01:54:50Z,-0.20818732587902572,0.34083464573097927,-0.17545433264558322,-0.19479727745056152,-0.33427390456199646,-0.9221252202987671,0.15905521782726612,-0.11678529821361122,-0.10343213467598798,0.9748662788228666,-0.10357769578695297,0.0813772901892662,-0.15953584015369415,0.0024986863136291504,0.011898308992385864,0.0009696483612060547
2025-09-16T01:54:50Z,-0.2055605923937185,0.3389500718652631,-0.17863350087118654,-0.1925026774406433,-0.33249714970588684,-0.923248827457428,0.15808552906900553,-0.1156916228334719,-0.10469212320054103,0.9750199225038801,-0.09045495092868805,0.07746337354183197,-0.12292756885290146,0.0013729333877563477,0.005903452634811401,0.0029329657554626465
2025-09-16T01:54:50Z,-0.2029419551617898,0.3370576110989482,-0.18180531316955015,-0.19021084904670715,-0.3307117521762848,-0.9243643879890442,0.15711522986867643,-0.11459750716744078,-0.10595172011767351,0.9751699307492976,-0.07733219861984253,0.07354944944381714,-0.08631929755210876,0.00024996697902679443,-0.00010004639625549316,0.004888355731964111
