timestamp,attitude_roll,attitude_pitch,attitude_yaw,gravity_x,gravity_y,gravity_z,quaternion_x,quaternion_y,quaternion_z,quaternion_w,rotation_rate_x,rotation_rate_y,rotation_rate_z,user_acceleration_x,user_acceleration_y,user_acceleration_z
2025-09-18T12:35:21Z,0.003502790469021938,-0.02111253001017964,-0.02898893651602871,-0.22718778252601624,-0.24430975317955017,-0.9427080750465393,-0.010529560522913017,0.001904111773528154,-0.014511616612917076,0.9998374610772748,-0.008835443295538425,0.001481686718761921,0.0053297122940421104,-0.001158401370048523,-0.001063227653503418,-0.0016431808471679688
2025-09-18T12:35:21Z,0.003361271970885766,-0.02135809627584634,-0.028823843300367635,-0.22736459970474243,-0.24404039978981018,-0.9427351951599121,-0.010653501931566847,0.00183426193610604,-0.014428525776042308,0.9998374827426876,-0.00449080066755414,4.096084740012884e-05,0.0009280978702008724,0.00212840735912323,-0.004951357841491699,-0.004854023456573486
2025-09-18T12:35:21Z,0.0035391050279121,-0.0213772073234189,-0.028870033861169632,-0.2271847426891327,-0.2440330535173416,-0.9427804350852966,-0.010661728185847307,0.0019235476921894757,-0.01445257950440435,0.9998369101109613,0.0009836438111960888,0.008002684451639652,-0.0028692695777863264,0.0033603310585021973,-0.004081711173057556,-0.0035265684127807617
2025-09-18T12:35:21Z,0.003744303352012636,-0.021392883670410593,-0.02903198461006666,-0.22694845497608185,-0.24405555427074432,-0.9428315162658691,-0.010667919074670025,0.0020271071391483987,-0.014534650211663686,0.9998353573131017,-0.000773300533182919,0.007584391627460718,-0.004632691852748394,3.914535045623779e-05,0.0005685687065124512,0.0018288493156433105
2025-09-18T12:35:21Z,0.0038585446984163766,-0.021415372265201082,-0.029045506275362683,-0.226837158203125,-0.24403750896453857,-0.9428629875183105,-0.010678316912027506,0.002084453516422875,-0.014542038829588773,0.9998350469257897,-0.004792532417923212,-0.0009280066005885601,0.0018459041602909565,-0.0003836303949356079,0.0015438646078109741,0.005318045616149902
2025-09-18T12:35:21Z,0.003635325235401349,-0.021549383429363234,-0.028999301486795238,-0.22705969214439392,-0.2439006119966507,-0.942844808101654,-0.01074698008843664,0.0019735856146129898,-0.014517859750263828,0.9998348827816234,-0.004789448343217373,-0.012522419914603233,0.0026778411120176315,0.002957552671432495,0.0011657923460006714,0.0026177167892456055
2025-09-18T12:35:21Z,0.0035252108267134438,-0.021701622504950533,-0.02890055794384833,-0.22718946635723114,-0.2437344342470169,-0.9428565502166748,-0.010823981337036605,0.0019191052911523188,-0.014468026905194603,0.9998348621880525,-0.005406572949141264,-0.009585753083229065,0.004283732268959284,0.0019454210996627808,0.0005545616149902344,0.0015301704406738281
2025-09-18T12:35:21Z,0.0034151111725942056,-0.02185387293947867,-0.02880183150222038,-0.22731921076774597,-0.24356825649738312,-0.9428682327270508,-0.010900982585636586,0.0018646249676916346,-0.014418194060125374,0.9998348415944817,-0.006023698020726442,-0.006649086717516184,0.005889623425900936,0.0009332746267318726,-5.666911602020264e-05,0.0004426240921020508
2025-09-18T12:35:21Z,0.0033050699338861727,-0.02200615011656229,-0.02870312556729977,-0.22744891047477722,-0.24340203404426575,-0.942879855632782,-0.010977991244764656,0.0018101666119705948,-0.014368363223432249,0.999834817315751,-0.006640822626650333,-0.0037124205846339464,0.007495515048503876,-7.891654968261719e-05,-0.0006679147481918335,-0.0006450414657592773
2025-09-18T12:35:21Z,0.003237060019989811,-0.02205315409838679,-0.02850707260312527,-0.22756478190422058,-0.24331256747245789,-0.9428750276565552,-0.011002151910221051,0.0017754255867647914,-0.014270013699152819,0.9998360350516265,-0.0015721903182566166,-0.006720413453876972,0.007131860591471195,-0.0003153085708618164,-0.0006225258111953735,0.0006380677223205566
2025-09-18T12:35:21Z,0.003027594050737273,-0.02212871160578216,-0.028323168431903897,-0.22781077027320862,-0.24319897592067719,-0.9428449273109436,-0.01104157265753113,0.0016702322774597472,-0.014176975588593477,0.9998370998820584,-0.0038065374828875065,-0.0074294330552220345,0.008137774653732777,-0.00012010335922241211,-0.0006869733333587646,-0.0006414651870727539
2025-09-18T12:35:21Z,0.0028637866105904798,-0.022157201249128334,-0.02822484377036842,-0.22799113392829895,-0.24314944446086884,-0.94281405210495,-0.011057054613430014,0.001587999826505923,-0.014126935338777699,0.9998377480739984,-0.0026222888845950365,-0.005042103119194508,0.005527600180357695,0.0009759962558746338,-0.0010511279106140137,-0.001852869987487793
2025-09-18T12:35:21Z,0.002837122625921097,-0.022241268117170993,-0.028097571346717837,-0.22804979979991913,-0.24304087460041046,-0.9428278803825378,-0.011099370046629914,0.001574556193376765,-0.014063215373924572,0.9998381767317931,-0.006987622007727623,-0.006328865885734558,0.00484117865562439,0.0002314746379852295,-9.648501873016357e-05,-0.0013775825500488281
2025-09-18T12:35:21Z,0.002635195801687888,-0.0224133630819208,-0.02800773792955947,-0.22826378047466278,-0.24285800755023956,-0.9428232312202454,-0.011186889638311076,0.0014743140931701452,-0.01401728506538235,0.9998380022782714,-0.007521037012338638,-0.006233811844140291,0.0074723693542182446,0.00178450345993042,-0.0005963295698165894,0.0002643465995788574
2025-09-18T12:35:21Z,0.0024566136405569598,-0.0226231724070178,-0.027879849668651042,-0.22846578061580658,-0.24263079464435577,-0.9428327679634094,-0.011293117601068435,0.0013857828212338241,-0.01395246476471269,0.9998378346732775,-0.008830027654767036,-0.011464287526905537,0.004884698893874884,0.0009376555681228638,-0.0003130286931991577,0.00015854835510253906
2025-09-18T12:35:21Z,0.002250198228317745,-0.02279891685542627,-0.027790132790380753,-0.2286839783191681,-0.24244451522827148,-0.9428278207778931,-0.011382472721755158,0.0012833048631410591,-0.01390653246745175,0.9998376324365057,-0.007791215553879738,-0.007707600016146898,0.006149310618638992,0.00033889710903167725,0.0005972087383270264,-0.0006594657897949219
2025-09-18T12:35:21Z,0.002107686423715262,-0.022954688822488398,-0.02763925440121249,-0.228858083486557,-0.24226292967796326,-0.9428322315216064,-0.011461428086316729,0.0012122770199647851,-0.013830363683473823,0.9998379070534524,-0.00817313976585865,-0.00747885275632143,0.00884196162223816,8.255243301391602e-06,1.455843448638916e-05,-1.609325408935547e-05
2025-09-18T12:35:21Z,0.0019236436649347252,-0.023068731790854464,-0.027417288581191114,-0.2290901094675064,-0.24210421741008759,-0.9428166747093201,-0.011519837389591532,0.0011197793644962821,-0.013718389827507114,0.9998388805015183,-0.004386737942695618,-0.007319917436689138,0.010849429294466972,-0.0016752183437347412,0.0012698918581008911,0.0003623366355895996
2025-09-18T12:35:21Z,0.001818173724849199,-0.023168558691313762,-0.02724029081302402,-0.2292362004518509,-0.2419693022966385,-0.9428157806396484,-0.011570560315116604,0.001066712519763089,-0.013629334706491043,0.9998396018962302,-0.003444144269451499,-0.0047536748461425304,0.010899289511144161,-0.0029426366090774536,-0.00042416155338287354,-0.0017838478088378906
2025-09-18T12:35:21Z,0.0018079508537433753,-0.023284268741743303,-0.026962588985885754,-0.2293190211057663,-0.2417961210012436,-0.9428400993347168,-0.011628623251511363,0.0010607745931444782,-0.01349049017248859,0.9998408066819787,-0.005818172357976437,0.004659832920879126,0.007326114922761917,-0.0017766207456588745,-0.0015683174133300781,-0.00501704216003418
2025-09-18T12:35:21Z,0.0020022769550010525,-0.023415036747498882,-0.026845878319315543,-0.22916652262210846,-0.2416459321975708,-0.942915678024292,-0.01169275326030118,0.0011581204061384442,-0.013433328723885238,0.9998407499923384,-0.0071060312911868095,0.012408069334924221,0.005313147325068712,-0.0014895051717758179,-0.003109067678451538,-0.003596961498260498
2025-09-18T12:35:21Z,0.0023888695235324458,-0.023555005938672307,-0.026786620761859534,-0.22881752252578735,-0.24150033295154572,-0.943037748336792,-0.011760169874948061,0.0013519757556211675,-0.013406037101632204,0.9998400861391268,-0.005639060866087675,0.016351409256458282,0.003940406255424023,-0.002475067973136902,-0.002096712589263916,-0.0017136931419372559
2025-09-18T12:35:21Z,0.002771492050893091,-0.02378544517152902,-0.026711945030349484,-0.22847622632980347,-0.2412659078836441,-0.9431804418563843,-0.01187286340307988,0.0015443541596516237,-0.01337109587377841,0.9998389712282483,-0.008044160902500153,0.01580408588051796,0.004947086330503225,-0.0020061731338500977,-0.0022441595792770386,0.0011535882949829102
2025-09-18T12:35:21Z,0.003082027610887073,-0.023940459467032046,-0.026606572061599443,-0.2282109409570694,-0.2410954087972641,-0.943288266658783,-0.011948372370318294,0.0017000012059487793,-0.013320369409402344,0.9998384135135259,-0.00838940404355526,0.02019479312002659,0.0033221575431525707,-0.0005745291709899902,-0.002003103494644165,-0.0006545186042785645
2025-09-18T12:35:21Z,0.0035508434360050343,-0.024067595448765074,-0.02659436056064973,-0.2277718335390091,-0.24097277224063873,-0.943425714969635,-0.012008818503806612,0.0019351419809287148,-0.0133171670332663,0.9998373598572747,-0.008170710876584053,0.02162346988916397,0.004640352912247181,-0.0003269463777542114,-0.0006417930126190186,0.0006607174873352051
2025-09-18T12:35:21Z,0.0038543892413774312,-0.024311581128536215,-0.026472969171209015,-0.22751721739768982,-0.24071474373340607,-0.9435530304908752,-0.012128896758344375,0.0020877731280354852,-0.013258519088609474,0.9998363914460466,-0.009362705983221531,0.013425826095044613,0.007645919919013977,-0.0007542520761489868,-0.0019131898880004883,0.0006788372993469238
2025-09-18T12:35:21Z,0.0041920536018714375,-0.024502226896588698,-0.026326679390811313,-0.22723692655563354,-0.24050116539001465,-0.9436750411987305,-0.012222131511673782,0.0022569430478225913,-0.013187619283954953,0.9998357424920804,-0.008929625153541565,0.01603296771645546,0.01038325484842062,-0.00023446977138519287,-0.0013849735260009766,-0.0013390779495239258
2025-09-18T12:35:21Z,0.004552306797867461,-0.02463083765286489,-0.026046746608024973,-0.2269705832004547,-0.24031522870063782,-0.9437865018844604,-0.01228439156380977,0.0024361651952586488,-0.013050012932739921,0.9998363829272353,-0.0018813186325132847,0.01514879334717989,0.01569380983710289,-0.0009611696004867554,-0.0018575936555862427,0.0020036697387695312
2025-09-18T12:35:21Z,0.004891002383998453,-0.02465547838093415,-0.02556114122166788,-0.2267788052558899,-0.24017968773841858,-0.9438670873641968,-0.012295132223980265,0.002602660147651955,-0.012809358193260918,0.9998389287834465,-0.00044073816388845444,0.01610204018652439,0.0339139848947525,-0.0029503852128982544,-0.00047670304775238037,-0.0017924308776855469
2025-09-18T12:35:21Z,0.005345913169097183,-0.024633606157448695,-0.024836321585121873,-0.22654029726982117,-0.2400325983762741,-0.9439617991447449,-0.012282307952932957,0.0028254882034355533,-0.012449773962243942,0.9998430917778512,9.123655036091805e-05,0.03180302679538727,0.03755727410316467,0.004958197474479675,-0.006700575351715088,-0.012085139751434326
2025-09-18T12:35:21Z,0.006494087703800472,-0.02468991610382203,-0.024128791456227535,-0.22564241290092468,-0.23981565237045288,-0.9442319273948669,-0.012304511034010627,0.003395480602829088,-0.012103200426865019,0.9998453122323907,-0.008654411882162094,0.05942443013191223,0.033488065004348755,0.0054825544357299805,-0.004023432731628418,-0.009470939636230469
2025-09-18T12:35:21Z,0.007676390604845135,-0.024971128141456574,-0.023457780333329674,-0.22470182180404663,-0.23939499258995056,-0.9445629119873047,-0.012439275729581369,0.003984056269275558,-0.011775537969503872,0.9998453606444104,-0.021053332835435867,0.053636692464351654,0.03325185179710388,0.0042540282011032104,0.0014626532793045044,-0.0036597251892089844
2025-09-18T12:35:22Z,0.008718635527520585,-0.025407887728830868,-0.0226345335152548,-0.223932683467865,-0.23879222571849823,-0.9448981285095215,-0.012653337215586868,0.004502438534120052,-0.011371379445791812,0.9998451708592342,-0.020451297983527184,0.05045415833592415,0.04742339253425598,0.00490666925907135,0.00417308509349823,-0.002260923385620117
2025-09-18T12:35:22Z,0.00986819739691208,-0.025701603776515796,-0.021477262474388463,-0.22314947843551636,-0.23824648559093475,-0.9452211260795593,-0.012796571046395356,0.005071378722663631,-0.010800808991475747,0.9998469184782838,-0.004367446526885033,0.053739484399557114,0.06930571049451828,0.0026726871728897095,0.0049316734075546265,0.00015181303024291992
2025-09-18T12:35:22Z,0.011045824592339907,-0.025673944155654445,-0.019860482157421644,-0.2224602997303009,-0.23789650201797485,-0.9454716444015503,-0.012780952830417866,0.0056496236415458775,-0.010000000049151251,0.999852343232769,0.008882374502718449,0.053684528917074203,0.08955709636211395,0.0008983612060546875,0.004069194197654724,0.0027236342430114746
2025-09-18T12:35:22Z,0.01215374377222796,-0.02530742803826063,-0.017887758222246634,-0.22193025052547455,-0.237782284617424,-0.9456249475479126,-0.012598291869180349,0.006189271955307395,-0.009019768596803446,0.9998607494000123,0.02565271407365799,0.05534857511520386,0.10467281192541122,0.0022815465927124023,0.002149641513824463,0.003040909767150879
2025-09-18T12:35:22Z,0.013259843033437347,-0.024263164240278332,-0.015527335593009357,-0.2215043604373932,-0.23821525275707245,-0.945615828037262,-0.012079184758137301,0.00672336567845156,-0.00784327451405783,0.999873657174002,0.03869880735874176,0.05633286386728287,0.11176754534244537,0.001855209469795227,0.0022939294576644897,-0.00029665231704711914
2025-09-18T12:35:22Z,0.014363438330497285,-0.02321629454339782,-0.013168130397695791,-0.2210794985294342,-0.23864923417568207,-0.9456058144569397,-0.011560054500437988,0.007257442379396418,-0.0066667662218453825,0.9998846317017172,0.05174490064382553,0.05731715261936188,0.11886227875947952,0.0014299452304840088,0.002439245581626892,-0.0036350488662719727
2025-09-18T12:35:22Z,0.015493357582120988,-0.0220366209794717,-0.010699318670897642,-0.22065772116184235,-0.239180788397789,-0.9455700516700745,-0.010976159882899766,0.0078049608858582736,-0.005434499865740859,0.9998945713016203,0.057505518198013306,0.05587546154856682,0.12308908998966217,0.0011123716831207275,0.0025459080934524536,-0.004621326923370361
2025-09-18T12:35:22Z,0.01668219727879138,-0.020752053830756578,-0.0081317254386461,-0.2202051728963852,-0.23978586494922638,-0.9455223083496094,-0.010341482376011657,0.008382668970428216,-0.004152035325809671,0.9999027878527217,0.06507548689842224,0.06014541536569595,0.13197989761829376,0.00020845234394073486,0.003940671682357788,-0.004243969917297363
2025-09-18T12:35:22Z,0.017877414738935025,-0.0193132893272736,-0.005363637817084388,-0.2197979837656021,-0.2404865175485611,-0.9454391002655029,-0.009632103531420596,0.008964035314903954,-0.0027678986334398847,0.999909601868986,0.07275447249412537,0.058777835220098495,0.14350399374961853,0.0010271817445755005,0.0042121559381484985,-0.0031380057334899902
2025-09-18T12:35:22Z,0.019231893811999294,-0.01758315455475038,-0.0022882259884932786,-0.21931956708431244,-0.24138587713241577,-0.9453210234642029,-0.008780051029822265,0.00962547915427506,-0.001228552584408124,0.9999143326005193,0.08182188868522644,0.06295642256736755,0.1509092003107071,0.0010111331939697266,0.0039091408252716064,-0.0018579959869384766
2025-09-18T12:35:22Z,0.020580983546931882,-0.01584887551490301,0.0007847538226761646,-0.21884413063526154,-0.24228650331497192,-0.9452007412910461,-0.007927972613680057,0.010286877641280799,0.00031079975213822513,0.9999155590582206,0.09088929742574692,0.06713500618934631,0.15831440687179565,0.0009980648756027222,0.003607422113418579,-0.000580132007598877
2025-09-18T12:35:22Z,0.021935195939143677,-0.013932552043038978,0.00404809849156984,-0.2184121012687683,-0.24330955743789673,-0.9450379014015198,-0.006987984919239272,0.010952991210200477,0.00194747614621696,0.9999136254526578,0.09720863401889801,0.06787905097007751,0.16726621985435486,0.0005983859300613403,0.004682689905166626,0.0016918182373046875
2025-09-18T12:35:22Z,0.02325966235925503,-0.011904290054993254,0.007442845279371954,-0.21804074943065643,-0.24440263211727142,-0.9448415637016296,-0.00599494405178999,0.011607134143389824,0.003651876605661029,0.9999079585221188,0.09963282197713852,0.06336889415979385,0.1725606471300125,0.0007534623146057129,0.0050992220640182495,0.003586888313293457
2025-09-18T12:35:22Z,0.02446397182659915,-0.009816958889067013,0.010931871835335193,-0.2178053855895996,-0.24552442133426666,-0.9446049928665161,-0.004974876032310677,0.012204524518279452,0.005405396524362574,0.9998984630901332,0.09967612475156784,0.05492257699370384,0.1760304719209671,0.0006495118141174316,0.003540322184562683,0.0021287202835083008
2025-09-18T12:35:22Z,0.025547885938121805,-0.007785179305047154,0.0144338803887432,-0.21768464148044586,-0.24658675491809845,-0.9443560242652893,-0.003984345999320162,0.01274507721451302,0.00716651371431266,0.9998850759861209,0.09578797966241837,0.05056255683302879,0.17575667798519135,0.00048331916332244873,0.0020716488361358643,0.0007163286209106445
2025-09-18T12:35:22Z,0.026546345314222838,-0.005809874022665434,0.01793185819023823,-0.21764104068279266,-0.247592955827713,-0.9441028237342834,-0.0030235612512832574,0.013246151586280995,0.008926426996501835,0.9998677793219608,0.09253105521202087,0.04811020940542221,0.17050184309482574,0.0004784315824508667,0.00021573901176452637,0.0004341602325439453
2025-09-18T12:35:22Z,0.02750634749539138,-0.0039000666224887196,0.021246982113635998,-0.21758493781089783,-0.24857817590236664,-0.9438568353652954,-0.002095836884656939,0.013731225170258534,0.010595450341324326,0.9998473151715758,0.08866691589355469,0.0469144806265831,0.1626121550798416,0.0012253522872924805,-0.0020553171634674072,-0.0005807280540466309
2025-09-18T12:35:22Z,0.02838294796916985,-0.0021392273151487977,0.024368503039120422,-0.21755586564540863,-0.24946744740009308,-0.9436288475990295,-0.0012423286378691902,0.014176905090799266,0.012167538208806334,0.9998247148749121,0.0805099830031395,0.042541783303022385,0.15087413787841797,0.001107916235923767,-0.004122018814086914,-5.543231964111328e-05
2025-09-18T12:35:22Z,0.029151255350566455,-0.0005537915815058724,0.027213529081468655,-0.21755649149417877,-0.25025686621665955,-0.9434196949005127,-0.0004751547738129196,0.014569995403986064,0.013600864134537038,0.9998011820820308,0.07020144164562225,0.03513181954622269,0.1344718039035797,0.0011275708675384521,-0.006275594234466553,0.0006260871887207031
2025-09-18T12:35:22Z,0.029394611073373916,0.0005863185855891823,0.02929507762902831,-0.2178565412759781,-0.25081416964530945,-0.9432023763656616,7.783227027864736e-05,0.014699493293008912,0.014649741160414703,0.9997845853350436,0.06528577208518982,0.0261584110558033,0.12357828766107559,0.0006241798400878906,-0.006238281726837158,0.0009418725967407227
2025-09-18T12:35:22Z,0.029635603743635712,0.0017269193832561436,0.03137635174900816,-0.2181577980518341,-0.2513706088066101,-0.9429846405982971,0.0006308124070170277,0.01482897577569432,0.01569859786829718,0.999766535876398,0.06037009879946709,0.01718500442802906,0.11268477141857147,0.00012195110321044922,-0.006201893091201782,0.0012571215629577637
2025-09-18T12:35:22Z,0.029874205060109273,0.0028680204907953494,0.033457360411836404,-0.2184603214263916,-0.25192615389823914,-0.9427663087844849,0.0011837923838966971,0.0149584279056129,0.01674743374008216,0.9997470970198769,0.055454425513744354,0.008211598731577396,0.10179125517606735,-0.00037898123264312744,-0.006166368722915649,0.0015718936920166016
2025-09-18T12:35:22Z,0.030110441992013764,0.0040096041268125795,0.035538101905705444,-0.2187640368938446,-0.25248080492019653,-0.9425474405288696,0.0017367648879791568,0.015087864022300996,0.017796244711762763,0.9997262054681875,0.05053875595331192,-0.0007618088275194168,0.09089773893356323,-0.0008787065744400024,-0.00613170862197876,0.001886129379272461
2025-09-18T12:35:22Z,0.030080531096920885,0.005080367725309567,0.03739376406333316,-0.21926122903823853,-0.25302356481552124,-0.9422863721847534,0.0022582718391198136,0.015084507696193758,0.018731816032516627,0.9997081278579423,0.049091242253780365,-0.0070069339126348495,0.0885799303650856,6.86347484588623e-05,-0.006143510341644287,0.0011650323867797852
2025-09-18T12:35:22Z,0.029933465827294704,0.006143600579889421,0.039150392496356184,-0.219843327999115,-0.2535826861858368,-0.9420003890991211,0.0027779174000666217,0.01502335759597821,0.019617626956518877,0.9996907544402207,0.05034221336245537,-0.010015411302447319,0.0884399563074112,0.000401422381401062,-0.005366116762161255,4.0471553802490234e-05
2025-09-18T12:35:22Z,0.029732230854890376,0.007233484353404147,0.040927827283871204,-0.22048094868659973,-0.25416049361228943,-0.9416955709457397,0.0033113932003695765,0.01493635849950093,0.020513845658020283,0.9996724289598101,0.052790772169828415,-0.007692352868616581,0.09129580855369568,4.503130912780762e-05,-0.005176246166229248,-0.0009397268295288086
2025-09-18T12:35:22Z,0.029579644541337727,0.008385420461731541,0.04279291600448113,-0.22109398245811462,-0.25477340817451477,-0.9413861632347107,0.003874868603042199,0.014875460787912926,0.021454291235206032,0.9996516074719382,0.0556006133556366,-0.0041299303993582726,0.09424925595521927,2.3484230041503906e-05,-0.005500584840774536,-0.0031514763832092285
2025-09-18T12:35:22Z,0.02950594076874831,0.009603853104823886,0.04468878835959983,-0.22163988649845123,-0.2554395794868469,-0.9410772323608398,0.00447058430457896,0.014855858958360692,0.022410669960433706,0.9996283884568198,0.05580668896436691,0.0009737396612763405,0.09677737951278687,0.000698089599609375,-0.005151301622390747,-0.004163265228271484
2025-09-18T12:35:22Z,0.02957698994453291,0.010742526406129235,0.04660953665166842,-0.22205422818660736,-0.2560237944126129,-0.9408207535743713,0.005024598176228531,0.014908878300932665,0.023379183920296462,0.999602816123101,0.051596347242593765,0.005670147482305765,0.09654364734888077,0.0012246668338775635,-0.0054145753383636475,-0.0035461783409118652
2025-09-18T12:35:22Z,0.029712022203036616,0.011810523384207315,0.04847355688264109,-0.2223930060863495,-0.2565549910068512,-0.9405960440635681,0.0055428349159185215,0.014993937893851877,0.024319010122179078,0.9995763474315889,0.044703006744384766,0.010337376967072487,0.09202002733945847,0.0012139081954956055,-0.005825221538543701,-0.0022041797637939453
2025-09-18T12:35:22Z,0.029897140240111423,0.012683849704463275,0.05029984592701979,-0.2226731777191162,-0.25691282749176025,-0.940432071685791,0.00596327469805476,0.015102450288045632,0.025238727289326742,0.9995494896675535,0.03718779981136322,0.009573730640113354,0.08931203931570053,0.0014027804136276245,-0.0064636170864105225,-0.00042563676834106445
2025-09-18T12:35:22Z,0.03008448305854929,0.013401367054772118,0.052026528030238835,-0.22292494773864746,-0.2571493089199066,-0.9403077960014343,0.0063063787224126875,0.01521051444984727,0.02610755976406331,0.9995234700547839,0.027659816667437553,0.008188699372112751,0.08286771178245544,0.000517725944519043,-0.006082713603973389,0.001331627368927002
2025-09-18T12:35:22Z,0.030207636253042503,0.013927534580517582,0.05365726868703554,-0.22321146726608276,-0.2572304904460907,-0.9402176141738892,0.006555270237417337,0.01528422636002855,0.026926843715614285,0.9994990208526312,0.01566837914288044,0.0062456149607896805,0.07650413364171982,0.00130404531955719,-0.00741267204284668,0.001392066478729248
2025-09-18T12:35:22Z,0.030260304063959974,0.01422449705665612,0.055156587512358815,-0.22352980077266693,-0.2571302354335785,-0.9401693940162659,0.006691486143096586,0.015319534368033443,0.02767850893806744,0.999477048063547,0.005372608080506325,0.0037969620898365974,0.07135035842657089,-8.301436901092529e-05,-0.007847249507904053,0.002918422222137451
2025-09-18T12:35:22Z,0.030270216916349974,0.014284522473010862,0.05653963026206866,-0.22385762631893158,-0.2568376958370209,-0.9401713609695435,0.006710746857556854,0.015329957007305745,0.02837014365055235,0.9994573488424487,-0.0067448122426867485,-0.0017183227464556694,0.06438735872507095,-0.0015312284231185913,-0.007433563470840454,0.0031632184982299805
2025-09-18T12:35:22Z,0.03016456805816387,0.014102137195093024,0.057785707705472235,-0.22425846755504608,-0.25635308027267456,-0.9402080774307251,0.006611583719673517,0.015278715920541749,0.02899112874275797,0.9994409738685406,-0.018324270844459534,-0.00550749059766531,0.054455000907182693,0.00025412440299987793,-0.010656356811523438,0.0006298422813415527
2025-09-18T12:35:22Z,0.03015778818661409,0.013679351333504224,0.058741297760437704,-0.22449363768100739,-0.2557172179222107,-0.9403250813484192,0.006393109425968487,0.015272300184320351,0.029465487909126436,0.9994286277002271,-0.029107294976711273,0.005487414076924324,0.03603024780750275,0.003227531909942627,-0.01256173849105835,-0.004198193550109863
2025-09-18T12:35:22Z,0.03033895003392007,0.012989706134879604,0.059318213833087365,-0.22445791959762573,-0.25492778420448303,-0.9405479431152344,0.006041383890734502,0.015354482596826433,0.02974919837987278,0.999421155918556,-0.04385564476251602,0.01033218577504158,0.019169550389051437,0.003923892974853516,-0.009167641401290894,-0.0029755234718322754
2025-09-18T12:35:22Z,0.03055668690373816,0.011957850472934467,0.05962354112744931,-0.22431914508342743,-0.2538873851299286,-0.9408624172210693,0.005520154717498798,0.015448883070226262,0.02989464933147287,0.9994183297271458,-0.06347934901714325,0.008685254491865635,0.0070526087656617165,0.002478301525115967,-0.005053669214248657,0.0004367828369140625
2025-09-18T12:35:22Z,0.03060746407515213,0.010537052288535149,0.05970552098221144,-0.2242802381515503,-0.2525399625301361,-0.9412342309951782,0.00480877136178759,0.015453342739740325,0.029925008293557508,0.9994210329352411,-0.08147172629833221,-0.0034324806183576584,-0.003179178573191166,0.0011377781629562378,-0.003196030855178833,0.0023792386054992676
2025-09-18T12:35:22Z,0.030423886676087905,0.008808267229538641,0.05960226809174987,-0.22441475093364716,-0.2509511411190033,-0.9416270852088928,0.003948410572160461,0.015335669372758888,0.029859951899808477,0.9994285658777788,-0.09396351128816605,-0.015574661083519459,-0.011305434629321098,0.00020854175090789795,-0.0025672316551208496,0.004375100135803223
2025-09-18T12:35:22Z,0.029988231357868683,0.0068398217364784636,0.05934417839177029,-0.22474758327007294,-0.24917669594287872,-0.9420188069343567,0.0029731925083744874,0.015088316725250165,0.029715482896164585,0.9994400216749204,-0.10177280008792877,-0.027648694813251495,-0.017383866012096405,0.00011295080184936523,-0.00238017737865448,0.006129145622253418
2025-09-18T12:35:22Z,0.02926536807070008,0.004685587982726955,0.0589828046842909,-0.22532515227794647,-0.24725361168384552,-0.9423875212669373,0.0019100632064573957,0.014694834404135694,0.02951815610324598,0.9994543617699572,-0.10889948904514313,-0.04212378337979317,-0.024013599380850792,-0.00021544098854064941,-0.0033098310232162476,0.006639063358306885
2025-09-18T12:35:22Z,0.028306666839000988,0.002407011717910374,0.05847172814914342,-0.22608855366706848,-0.24525080621242523,-0.9427279829978943,0.0007891589014512909,0.014181979610206083,0.02924577630695946,0.9994713258744872,-0.11715570092201233,-0.05282168090343475,-0.03138551115989685,0.00010982155799865723,-0.003551885485649109,0.004450440406799316
2025-09-18T12:35:22Z,0.02715097528365603,1.6292780938575565e-05,0.05780894634165088,-0.22700099647045135,-0.24317990243434906,-0.9430450797080994,-0.0003841834482684825,0.013569636330905365,0.028897897379092565,0.9994901379115021,-0.1239967793226242,-0.06306859105825424,-0.04089520126581192,0.0007269531488418579,-0.004566118121147156,0.002064347267150879
2025-09-18T12:35:22Z,0.025808986589380876,-0.002558741370851786,0.05693233061453446,-0.2280370593070984,-0.24098876118659973,-0.9433575868606567,-0.0016460269725637703,0.012862486380730738,0.028443426549383196,0.9995112494641447,-0.13306938111782074,-0.0728626474738121,-0.052627649158239365,-2.4020671844482422e-05,-0.00545482337474823,4.0531158447265625e-05
2025-09-18T12:35:22Z,0.02428409291542636,-0.005353440501612787,0.055811269694678776,-0.22918608784675598,-0.23865142464637756,-0.9436732530593872,-0.0030142558854316212,0.012062297780392812,0.027867370669551576,0.9995342476594856,-0.1418495774269104,-0.08140625804662704,-0.06528622657060623,-0.0005285590887069702,-0.005096942186355591,-0.0017246007919311523
2025-09-18T12:35:22Z,0.022552514986869707,-0.00831768225580697,0.054458545117823255,-0.23047411441802979,-0.2362111508846283,-0.9439734816551208,-0.004464020456752374,0.011158520584380709,0.027177064360582842,0.9995583688045214,-0.14757807552814484,-0.09105271846055984,-0.08001547306776047,7.517635822296143e-05,-0.006699070334434509,-0.0016499757766723633
2025-09-18T12:35:22Z,0.020859301034371894,-0.011267940409308818,0.052335990886174244,-0.23153916001319885,-0.2339748591184616,-0.9442697763442993,-0.005904588131183876,0.010278321651329402,0.026104433015496992,0.9995888980645142,-0.14573341608047485,-0.08780301362276077,-0.09468697011470795,0.0002798140048980713,-0.005082026124000549,-0.0011804699897766113
2025-09-18T12:35:22Z,0.01915975929801318,-0.014214608944171451,0.05020836714729312,-0.2326095998287201,-0.2317400425672531,-0.9445577263832092,-0.007345139665280528,0.009398078608580888,0.025031698408203778,0.999615437406636,-0.14388877153396606,-0.0845533013343811,-0.10935846716165543,0.0004898309707641602,-0.0034634917974472046,-0.0007192492485046387
2025-09-18T12:35:23Z,0.017453861310484934,-0.017157646977631003,0.048075641162095846,-0.2336854189634323,-0.22950676083564758,-0.9448374509811401,-0.008785659717760247,0.008517792237175756,0.02395886422781348,0.9996379887531561,-0.14204411208629608,-0.08130359649658203,-0.1240299642086029,0.000705227255821228,-0.0018434375524520874,-0.0002663135528564453
2025-09-18T12:35:23Z,0.01577006694880459,-0.02003741587530885,0.045604602735389965,-0.23465782403945923,-0.22741426527500153,-0.945102334022522,-0.010195395867791904,0.007654088091775823,0.02271949911856666,0.9996605051605901,-0.1413794904947281,-0.0811360627412796,-0.13257819414138794,0.00039887428283691406,-0.0005438327789306641,0.00022459030151367188
2025-09-18T12:35:23Z,0.014082309997972116,-0.022870228816359025,0.0428893438508773,-0.23557397723197937,-0.2254233956336975,-0.9453513622283936,-0.011582924985157627,0.00679382546846958,0.02136059904069929,0.9996816676092257,-0.14152400195598602,-0.08388683944940567,-0.13954496383666992,0.000661015510559082,-0.00042210519313812256,0.00019246339797973633
2025-09-18T12:35:23Z,0.012325474888350377,-0.02567030277387593,0.04005860753951669,-0.23652663826942444,-0.22348827123641968,-0.9455729126930237,-0.012955396382469675,0.005903904520917269,0.0199468525000293,0.9996997168037379,-0.1376180201768875,-0.08655060082674026,-0.1436959058046341,0.0007790923118591309,-0.0011065304279327393,-0.0012259483337402344
2025-09-18T12:35:23Z,0.010555284628292933,-0.028379711683266046,0.03711630450646389,-0.23746393620967865,-0.22166237235069275,-0.9457677602767944,-0.014284666095490145,0.005012867919359362,0.018480087209041,0.9997146092557885,-0.13139265775680542,-0.08329255133867264,-0.1495947390794754,0.0007193982601165771,-0.0021482855081558228,-0.002617955207824707
2025-09-18T12:35:23Z,0.008910038344705795,-0.03089254573541058,0.03409753936536268,-0.23826374113559723,-0.22003702819347382,-0.9459461569786072,-0.015519199922035008,0.004190511431931018,0.016976940034093044,0.9997266783948755,-0.12119597941637039,-0.0766078382730484,-0.15305441617965698,0.000632062554359436,-0.0030089467763900757,-0.003646254539489746
2025-09-18T12:35:23Z,0.007389527718375879,-0.03322663049564618,0.030962331615499487,-0.23891569674015045,-0.21860529482364655,-0.946113646030426,-0.01666763559974363,0.0034366332166150277,0.01541693325427633,0.9997363325414891,-0.10979488492012024,-0.06801283359527588,-0.15689289569854736,0.0015015602111816406,-0.0029793381690979004,-0.005469381809234619
2025-09-18T12:35:23Z,0.006021001623011697,-0.035330240957516454,0.027774005319952503,-0.23940947651863098,-0.21740058064460754,-0.9462664127349854,-0.01770421717133917,0.0027644424721221666,0.013831153718355778,0.9997437873342552,-0.09757357835769653,-0.057069081813097,-0.15950854122638702,0.0018064528703689575,-0.0036749541759490967,-0.007058143615722656
2025-09-18T12:35:23Z,0.004900525811048427,-0.03720921978366525,0.02452348536178144,-0.23965145647525787,-0.2164197415113449,-0.946429967880249,-0.01863212127529873,0.002221546911761481,0.012213696874226953,0.999749310338492,-0.08650711178779602,-0.043715063482522964,-0.16255348920822144,0.0009624063968658447,-0.003306746482849121,-0.006934642791748047
2025-09-18T12:35:23Z,0.004021791342226534,-0.03880921269588164,0.021201205865804824,-0.2396448254585266,-0.2157166600227356,-0.9465921521186829,-0.019423572346639432,0.0018047194886615541,0.010559371805123742,0.9997539080267908,-0.07340151071548462,-0.035322315990924835,-0.16149288415908813,-0.00031213462352752686,-0.0009651780128479004,-0.0038682222366333008
2025-09-18T12:35:23Z,0.0032775127762969458,-0.04016371994555752,0.017976959934613537,-0.2395336776971817,-0.21521860361099243,-0.9467336535453796,-0.02009439970560357,0.0014578684959399193,0.008953629170072157,0.9997568888212127,-0.060641802847385406,-0.03190021961927414,-0.15562954545021057,-0.0023453235626220703,0.0006419122219085693,-0.0026242733001708984
2025-09-18T12:35:23Z,0.0025839375233238527,-0.041299361328825966,0.014899291348467424,-0.2394096702337265,-0.21488915383815765,-0.9468398094177246,-0.020657245582795535,0.0011378367969930594,0.007421306242343216,0.9997584224615578,-0.0501553937792778,-0.030186062678694725,-0.1463516652584076,-0.0024546533823013306,0.0030065923929214478,-0.0008833408355712891
2025-09-18T12:35:23Z,0.0018931211830869633,-0.04222631607616875,0.012049483890407314,-0.23933911323547363,-0.21469956636428833,-0.9469006657600403,-0.021116897555493248,0.0008191412373096809,0.006003376787204097,0.9997586914125396,-0.04242515563964844,-0.027243472635746002,-0.1343306601047516,-0.0025376081466674805,0.004914969205856323,-0.0015300512313842773
2025-09-18T12:35:23Z,0.0013516019644542556,-0.04286761215823605,0.009789206735218575,-0.23927585780620575,-0.2146364450454712,-0.946931004524231,-0.021435209794189853,0.0005707360957664623,0.004878974613288948,0.9997581978281272,-0.03722400590777397,-0.02545749954879284,-0.12104663252830505,-0.0018493831157684326,0.004391834139823914,-0.0015263557434082031
2025-09-18T12:35:23Z,0.0008086237059541448,-0.043507697705468903,0.007528521525448735,-0.239212766289711,-0.21457315981388092,-0.9469612836837769,-0.021753497695164978,0.0003223328063508865,0.003754566147168081,0.999756314063997,-0.032022856175899506,-0.023671526461839676,-0.10776260495185852,-0.0011610090732574463,0.003868579864501953,-0.0015227198600769043
2025-09-18T12:35:23Z,0.00026417349809288853,-0.04414653725418192,0.005267422752603492,-0.23914982378482819,-0.21450971066951752,-0.946991503238678,-0.022071746039539923,7.392428578090139e-05,0.00263015123959414,0.9997529824367014,-0.02682170458137989,-0.021885553374886513,-0.09447857737541199,-0.00047244131565093994,0.0033451616764068604,-0.00151902437210083
2025-09-18T12:35:23Z,-0.00016583068780214386,-0.044649165163574055,0.0033792024532138232,-0.23907305300235748,-0.21448487043380737,-0.9470165371894836,-0.02232255473843193,-0.00012061104206355982,0.0016910301763014444,0.9997494509355778,-0.022279957309365273,-0.019444048404693604,-0.08421175181865692,0.0004420727491378784,0.002899184823036194,-0.002142965793609619
2025-09-18T12:35:23Z,-0.0005495124495514006,-0.0450836578108395,0.001729303461633471,-0.23901280760765076,-0.21446675062179565,-0.9470358490943909,-0.022539673986909797,-0.00029417550544623904,0.0008706249349891051,0.9997454886627609,-0.01926347054541111,-0.013266128487884998,-0.07430735230445862,0.0006564408540725708,0.0020049214363098145,-0.002444744110107422
2025-09-18T12:35:23Z,-0.000842874475128471,-0.045464411169174504,0.0002616428291683333,-0.23891335725784302,-0.2144554853439331,-0.9470635056495667,-0.022730191637982455,-0.00042430196147819706,0.00014036698346934004,0.9997414850247731,-0.0175735205411911,-0.008859261870384216,-0.06811807304620743,0.0006512105464935303,0.0016093254089355469,-0.0018830299377441406
2025-09-18T12:35:23Z,-0.001101431231150341,-0.04581683605069494,-0.0010598376280583728,-0.23881810903549194,-0.21443574130535126,-0.9470919966697693,-0.022906700482222514,-0.0005384324960580442,-0.0005171647701451252,0.9997372828845149,-0.014918509870767593,-0.00962118711322546,-0.06253252923488617,0.00048097968101501465,0.001096472144126892,-0.001259148120880127
2025-09-18T12:35:23Z,-0.0013819831089254492,-0.04611540694346084,-0.002295123988884016,-0.23876552283763885,-0.2144460827112198,-0.9471029043197632,-0.02305643344020368,-0.000664349606003423,-0.0011313252194831286,0.9997332613922595,-0.01253074873238802,-0.012627581134438515,-0.058815546333789825,0.000814780592918396,0.00033329427242279053,-0.0012325048446655273
2025-09-18T12:35:23Z,-0.0017313327924734709,-0.046377046937860565,-0.003485560152133617,-0.23878931999206543,-0.21448038518428802,-0.9470891356468201,-0.02318791069805005,-0.0008250234366229032,-0.0017222383823256666,0.9997292606993424,-0.009061957709491253,-0.020142896100878716,-0.05709538236260414,0.002292037010192871,-0.000474393367767334,-0.00026863813400268555
2025-09-18T12:35:23Z,-0.00222119044707643,-0.04650243111241854,-0.004665447971566481,-0.23894855380058289,-0.21464093029499054,-0.9470126032829285,-0.023251633261750844,-0.0010560580946998759,-0.002306269640185066,0.999726415873655,-0.003652186132967472,-0.02348710224032402,-0.0586165115237236,0.0024084001779556274,-0.0014204680919647217,-0.0005959272384643555
2025-09-18T12:35:23Z,-0.002767292326755222,-0.0465164905812862,-0.005907022148239727,-0.23914463818073273,-0.21492113173007965,-0.9468995332717896,-0.023260111267897808,-0.0013145783921191,-0.0029205271415690317,0.9997242728547767,0.002970060333609581,-0.026434902101755142,-0.06011802330613136,0.0011270344257354736,-0.001809641718864441,0.0008575916290283203
2025-09-18T12:35:23Z,-0.0034750390702719338,-0.04638493455614299,-0.007143263528790944,-0.23949463665485382,-0.21533766388893127,-0.9467164278030396,-0.023196410638317455,-0.0016542131623726215,-0.003530364970241275,0.9997232691741431,0.010217105969786644,-0.03223760053515434,-0.06145167723298073,-0.00013221800327301025,-0.002160876989364624,0.001828908920288086
2025-09-18T12:35:23Z,-0.004244720240509542,-0.04608927361451526,-0.008452321833153713,-0.23988372087478638,-0.21592645347118378,-0.9464837908744812,-0.02305130824322239,-0.0020243949789079227,-0.004176112795034052,0.9997234378883867,0.01861363649368286,-0.035141587257385254,-0.06570177525281906,0.0010597854852676392,-0.0040602535009384155,-0.0020787715911865234
2025-09-18T12:35:23Z,-0.0049435680646394385,-0.045605254842547994,-0.00992064518133705,-0.24016360938549042,-0.21673071384429932,-0.9462289214134216,-0.022812560551723583,-0.00235801091167636,-0.0049026404010608406,0.9997248827494482,0.02537265047430992,-0.03060321696102619,-0.07855129987001419,0.003051549196243286,-0.006201744079589844,-0.005130887031555176
2025-09-18T12:35:23Z,-0.005593799783740081,-0.04502247097609203,-0.011718763244666123,-0.2403108775615692,-0.2177053987979889,-0.9459677934646606,-0.022525245238679773,-0.002664250263906799,-0.005794885823281187,0.9997258593482129,0.029622424393892288,-0.028748879209160805,-0.09766732156276703,0.0043030232191085815,-0.005431324243545532,-0.004813790321350098
2025-09-18T12:35:23Z,-0.006276429816229114,-0.044418446870877176,-0.01385783844922091,-0.24039898812770844,-0.21877922117710114,-0.9456976056098938,-0.022228493550102955,-0.002983489169479465,-0.006857430938433055,0.9997249723455259,0.02903607115149498,-0.031537968665361404,-0.11141936480998993,0.004304841160774231,-0.002586662769317627,-0.0026875734329223633
2025-09-18T12:35:23Z,-0.007123603905813205,-0.04384279535863378,-0.01623546649091171,-0.2405790239572525,-0.2198805958032608,-0.945396363735199,-0.021947687296654906,-0.0033828866139829655,-0.008037571584720937,0.999721082219593,0.02796538546681404,-0.040963321924209595,-0.1228301003575325,0.0027355551719665527,-0.0018438249826431274,-5.441904067993164e-05
2025-09-18T12:35:23Z,-0.008171029070439897,-0.04319291259297223,-0.01880711545321876,-0.24089573323726654,-0.2210959494113922,-0.9450321793556213,-0.02163205226625205,-0.003881306967773493,-0.009312926630961414,0.9997150444101466,0.03308951109647751,-0.05267148092389107,-0.13071613013744354,0.0019067078828811646,-0.0022259503602981567,0.0034219026565551758
2025-09-18T12:35:23Z,-0.009473862441064684,-0.0423784243635962,-0.02153493327371767,-0.24141037464141846,-0.22250166535377502,-0.9445708394050598,-0.021237153968091244,-0.004507445739731477,-0.010664363159807132,0.9997073726628777,0.04516288638114929,-0.06908632814884186,-0.13539212942123413,0.001939043402671814,-0.002172619104385376,0.006234407424926758
2025-09-18T12:35:23Z,-0.011069175569197622,-0.04130184004427644,-0.02429192387031501,-0.24219027161598206,-0.22416017949581146,-0.9439788460731506,-0.020714820839349498,-0.005282174152322621,-0.012028611183277709,0.9996990416417234,0.0581241250038147,-0.08085110783576965,-0.13632488250732422,0.0017840713262557983,-0.0005644857883453369,0.005278050899505615
2025-09-18T12:35:23Z,-0.012866824104299238,-0.04003601434218852,-0.027006575431040666,-0.24316859245300293,-0.2259858101606369,-0.9432917833328247,-0.020101284170854505,-0.006161215667245348,-0.013371130685401697,0.9996894773831662,0.06736238300800323,-0.0882520005106926,-0.13255208730697632,0.002717450261116028,-0.0005127638578414917,0.003914296627044678
2025-09-18T12:35:23Z,-0.01480404613642266,-0.03858659870664437,-0.02963177047794066,-0.2442980855703354,-0.22796234488487244,-0.9425240755081177,-0.019399098376498457,-0.007113954253587981,-0.014669396262448677,0.9996789042844435,0.074861079454422,-0.09281250089406967,-0.13169130682945251,0.002255275845527649,-0.0005647987127304077,0.0020299553871154785
2025-09-18T12:35:23Z,-0.016797955473433792,-0.03700285233788342,-0.03227757298295332,-0.24547123908996582,-0.2300683856010437,-0.941707193851471,-0.01863282714336249,-0.008097797749573673,-0.015979392303350576,0.9996659198346352,0.07644206285476685,-0.09813404083251953,-0.1321629136800766,0.0021141022443771362,0.0001497715711593628,-0.001091599464416504
2025-09-18T12:35:23Z,-0.018872481752288877,-0.0354580263913739,-0.034888151579772396,-0.24672578275203705,-0.23212720453739166,-0.9408737421035767,-0.017889167378190244,-0.009123961637627334,-0.017272414315592503,0.9996491656578691,0.07354101538658142,-0.10021722316741943,-0.12930431962013245,0.001007169485092163,0.001982554793357849,-0.003179311752319336
2025-09-18T12:35:23Z,-0.0209561548135685,-0.033968842013075734,-0.0374369829425988,-0.2480015605688095,-0.2341170310974121,-0.9400449395179749,-0.01717578783729933,-0.010156667874805885,-0.018535750689766296,0.9996290408488396,0.06854591518640518,-0.10382591187953949,-0.1246987134218216,0.0009904950857162476,0.0019189268350601196,-0.0025805234909057617
2025-09-18T12:35:23Z,-0.02298359398957367,-0.03258184414012829,-0.03987018394462708,-0.24925196170806885,-0.23598189651966095,-0.9392476081848145,-0.01651492828628253,-0.011163032213794518,-0.019742647654983687,0.9996063806707327,0.06488215923309326,-0.09442008286714554,-0.11885490268468857,0.001311957836151123,0.001781567931175232,-0.004442751407623291
2025-09-18T12:35:23Z,-0.02478056896303287,-0.031265525645040315,-0.04216663189784424,-0.25031933188438416,-0.2377469688653946,-0.9385182857513428,-0.01588862193999404,-0.01205617244450451,-0.020883920710932168,0.9995829866527816,0.061034295707941055,-0.08236632496118546,-0.11457427591085434,0.0023747533559799194,0.0017934292554855347,-0.004090547561645508
2025-09-18T12:35:23Z,-0.026417757729192578,-0.0300407318307127,-0.044395802072996295,-0.25125235319137573,-0.23940864205360413,-0.9378463625907898,-0.015307933702034192,-0.012870398820422011,-0.021993296953485928,0.9995581141899488,0.05623418837785721,-0.07334684580564499,-0.10800279676914215,0.002037525177001953,0.0028458982706069946,-0.003368556499481201
2025-09-18T12:35:23Z,-0.02785759721225914,-0.028898957110746963,-0.0464586378304386,-0.2520427703857422,-0.2409527450799942,-0.9372386336326599,-0.014767158601905056,-0.013587558999903344,-0.023021354818181097,0.999533614270837,0.052353739738464355,-0.06701203435659409,-0.09786969423294067,0.0006336867809295654,0.003375232219696045,-0.002113938331604004
2025-09-18T12:35:23Z,-0.029203009481377145,-0.027810315353831837,-0.04830351372886405,-0.2528012990951538,-0.24239614605903625,-0.936661958694458,-0.014251744086827276,-0.014259562162343557,-0.02394153757574632,0.9995100316376108,0.04997390881180763,-0.06307020783424377,-0.0880398154258728,-0.0004922747611999512,0.00224517285823822,-0.0015216469764709473
2025-09-18T12:35:23Z,-0.03038345154992036,-0.026754842954520696,-0.04989414203738982,-0.25347208976745605,-0.2437499761581421,-0.9361292123794556,-0.013750218292781594,-0.014851411369315498,-0.024736224481880023,0.999489107202825,0.05180208384990692,-0.061831921339035034,-0.08650333434343338,-0.0005947649478912354,-0.0006845444440841675,-0.0012258291244506836
2025-09-18T12:35:23Z,-0.03156214521015444,-0.025697475912108133,-0.05148348568208888,-0.2541400194168091,-0.24510440230369568,-0.9355943202972412,-0.013248664982366163,-0.015443224753973106,-0.02553088413971477,0.9994669704179998,0.05363025888800621,-0.060593634843826294,-0.08496685326099396,-0.0007001161575317383,-0.003613695502281189,-0.0009320974349975586
2025-09-18T12:35:23Z,-0.03273916317642367,-0.024638241772953512,-0.05307153001509934,-0.25480517745018005,-0.24645932018756866,-0.9350572824478149,-0.012747098049759181,-0.016035038715894318,-0.02632550832923614,0.9994435633312968,0.0554584339261055,-0.059355348348617554,-0.08343037217855453,-0.0008082091808319092,-0.00654233992099762,-0.000640571117401123
2025-09-18T12:35:23Z,-0.03392627700347801,-0.023463663009858624,-0.05474842902101848,-0.25545328855514526,-0.24794189631938934,-0.9344883561134338,-0.012189720235341947,-0.016633747059690892,-0.02716605443856971,0.9994182062374263,0.05891800671815872,-0.0596313402056694,-0.08669766783714294,-0.00023624300956726074,-0.006977245211601257,-0.002302110195159912
2025-09-18T12:35:23Z,-0.03516002853074437,-0.02229258103733267,-0.056491258526098764,-0.2561255097389221,-0.24943479895591736,-0.9339068531990051,-0.011636328175525065,-0.017256268148293678,-0.02803989568054999,0.9993901096940102,0.05639993026852608,-0.05683447793126106,-0.0905022919178009,0.0002434849739074707,-0.004943370819091797,-0.003165900707244873
2025-09-18T12:35:23Z,-0.03623801878883467,-0.02115944515757246,-0.05827788952408468,-0.2566390335559845,-0.2509005665779114,-0.9333730936050415,-0.01110113397611692,-0.017801131254730124,-0.028936810214872717,0.9993610665738404,0.048700302839279175,-0.05026641860604286,-0.0891183540225029,0.0011031031608581543,-0.0022695064544677734,-0.003931760787963867
2025-09-18T12:35:23Z,-0.03720945473420408,-0.020248392310809223,-0.05999899435928311,-0.2570713758468628,-0.25214147567749023,-0.9329196214675903,-0.010675704487147154,-0.018290712779686958,-0.02980001041045944,0.9993315006060426,0.03430185467004776,-0.042047783732414246,-0.0800083726644516,0.0010627806186676025,0.0010655522346496582,-0.004094600677490234
2025-09-18T12:35:24Z,-0.03801011366667706,-0.019595133042653482,-0.06146531277665531,-0.25741463899612427,-0.25308212637901306,-0.9325701594352722,-0.010374935791478926,-0.01869302886857268,-0.03053469439297048,0.9993050242906696,0.020517876371741295,-0.033542290329933167,-0.06442789733409882,0.001082390546798706,0.0045507848262786865,-0.003890693187713623
2025-09-18T12:35:24Z,-0.03859346280625582,-0.01923627676612176,-0.06256758244494474,-0.25765612721443176,-0.2536642849445343,-0.9323452711105347,-0.010215005432923788,-0.01898441856936994,-0.031085925642954253,0.9992841914278268,0.008090237155556679,-0.01986096054315567,-0.04217866435647011,0.0014337003231048584,0.006849363446235657,-0.004516661167144775
2025-09-18T12:35:24Z,-0.038879673372333896,-0.019150343181554293,-0.06320843747157964,-0.25774818658828735,-0.2538870573043823,-0.932259202003479,-0.010182647248953179,-0.019125510922918816,-0.031405506762321705,0.999271845121044,-0.0013927044346928596,-0.008367829024791718,-0.019913451746106148,0.0009344816207885742,0.00506165623664856,-0.0032861828804016113
2025-09-18T12:35:24Z,-0.03891798420427058,-0.019227142196722315,-0.06338612499210361,-0.2577363848686218,-0.25385406613349915,-0.9322714805603027,-0.01022332077257201,-0.019142524135283865,-0.0314933325447016,0.9992683283588716,-0.006071537267416716,-0.0005909292958676815,0.0030181966722011566,0.0004385709762573242,0.0023756027221679688,-0.0015422701835632324
2025-09-18T12:35:24Z,-0.03875680280879046,-0.01937809809264952,-0.06319974274823689,-0.25763821601867676,-0.25367069244384766,-0.9323484897613525,-0.010294428084709413,-0.01906054605378793,-0.031399547620017364,0.9992721408416095,-0.005238237325102091,0.00899900309741497,0.020642263814806938,0.00022715330123901367,-0.0004392564296722412,-0.0006425380706787109
2025-09-18T12:35:24Z,-0.03845779962667804,-0.01951982133600896,-0.06267816216525558,-0.25750237703323364,-0.2534217834472656,-0.9324536919593811,-0.010355611818430983,-0.018911603352415228,-0.03113910161937676,0.999282457414913,-0.003590527456253767,0.011530820280313492,0.030691027641296387,-0.0008126497268676758,-0.0022218823432922363,0.001145005226135254
2025-09-18T12:35:24Z,-0.03825105402037734,-0.019641966537067963,-0.06202288536264081,-0.25748857855796814,-0.25316160917282104,-0.9325281977653503,-0.010407258931192003,-0.01880979111015473,-0.030811580922572464,0.9992939783632576,-0.003302125260233879,0.009787292219698429,0.03250027820467949,0.0004923045635223389,-0.003653287887573242,5.6862831115722656e-05
2025-09-18T12:35:24Z,-0.038020845851624054,-0.019769948772577706,-0.061368584364074365,-0.2574525475502014,-0.2528960406780243,-0.9326102137565613,-0.0104615416743414,-0.018696195905005073,-0.030484621457369288,0.9993055759862989,-0.0024987568613141775,0.008753035217523575,0.028996029868721962,0.001955658197402954,-0.00538209080696106,-0.0010137557983398438
2025-09-18T12:35:24Z,-0.03787717908075945,-0.02007301923514619,-0.06102830414842588,-0.25741371512413025,-0.2525351345539093,-0.9327186942100525,-0.010607611907509707,-0.018621540624429382,-0.030312435562541432,0.9993106816642249,-0.00857566948980093,0.006106926128268242,0.022307198494672775,0.0023116469383239746,-0.004468798637390137,-0.000415802001953125
2025-09-18T12:35:24Z,-0.03773342331054372,-0.02037602512221914,-0.060687974545176604,-0.25737473368644714,-0.2521742284297943,-0.9328271150588989,-0.0107536739200922,-0.01854689209602221,-0.03014024621310188,0.9993157286779611,-0.014652581885457039,0.0034608172718435526,0.015618368983268738,0.0026674866676330566,-0.003555476665496826,0.00018209218978881836
2025-09-18T12:35:24Z,-0.03758958050477648,-0.020678996487401766,-0.06034759970217059,-0.2573356330394745,-0.2518133223056793,-0.932935357093811,-0.010899742827193528,-0.01847225085806696,-0.029968055265317248,0.999320715098642,-0.020729495212435722,0.000814708648249507,0.008929538540542126,0.0030232369899749756,-0.002642214298248291,0.0007798671722412109
2025-09-18T12:35:24Z,-0.03758837568031771,-0.02112462717285868,-0.060174870984454794,-0.2573855221271515,-0.25135520100593567,-0.9330451488494873,-0.011120790595505317,-0.018465844235204924,-0.02987749944163687,0.9993211532483832,-0.025089222937822342,-0.005349316634237766,0.005070401355624199,0.0027740895748138428,-0.004016757011413574,-3.3915042877197266e-05
2025-09-18T12:35:24Z,-0.03764701565933724,-0.021639577722210573,-0.06013969592707748,-0.25745460391044617,-0.2508622109889984,-0.9331587553024292,-0.011378638820146118,-0.01848754956839792,-0.029854672374186535,0.9993184917075223,-0.026211488991975784,-0.006974350661039352,0.00035964231938123703,0.0015091001987457275,-0.004664182662963867,-0.00021660327911376953
2025-09-18T12:35:24Z,-0.03778924376069697,-0.02212626713255209,-0.060172004537479194,-0.2575831711292267,-0.250410795211792,-0.933244526386261,-0.011624237259520885,-0.018551063242424497,-0.02986533216617524,0.9993141309221127,-0.022130904719233513,-0.007711498998105526,-0.002632837276905775,0.0006113946437835693,-0.0036976635456085205,0.0007101297378540039
2025-09-18T12:35:24Z,-0.037967494330313385,-0.022497861043212577,-0.06019232305851458,-0.2577475607395172,-0.2500651478767395,-0.9332917928695679,-0.011812754434077295,-0.018634379576768695,-0.029870859659991256,0.9993102456013595,-0.01495157741010189,-0.0059273759834468365,0.0019210861064493656,-0.0013672113418579102,-0.0023345649242401123,-0.0010159611701965332
2025-09-18T12:35:24Z,-0.038051079673105545,-0.02278637233427982,-0.0601057233829863,-0.257851779460907,-0.2497740238904953,-0.9333409667015076,-0.011957348027897136,-0.018672289841952426,-0.029824303215453134,0.9993092341900218,-0.010251699015498161,0.00224649952724576,0.0038812088314443827,0.0014266669750213623,-0.003711611032485962,-0.007891952991485596
2025-09-18T12:35:24Z,-0.03773495366789192,-0.022992675859467133,-0.06003454479621386,-0.25757795572280884,-0.2495637834072113,-0.9334728121757507,-0.012055054002947187,-0.01851164331562497,-0.029788646713305247,0.9993121397894915,-0.010020128451287746,0.022305825725197792,0.0021811206825077534,0.002110809087753296,-0.0018083155155181885,-0.009058773517608643
2025-09-18T12:35:24Z,-0.03715969856477419,-0.023294306334804876,-0.05999772827889997,-0.2570536732673645,-0.24927128851413727,-0.9336954951286316,-0.012196860583787153,-0.018219880103710027,-0.029770864966741965,0.9993162882924959,-0.019146399572491646,0.0315750353038311,0.0029773390851914883,0.002192199230194092,0.001493006944656372,-0.006756305694580078
2025-09-18T12:35:24Z,-0.03650208488182238,-0.023766091503866757,-0.05991413850439485,-0.2564665377140045,-0.24880799651145935,-0.9339804649353027,-0.012422052621893062,-0.01788469152898943,-0.029728720613601458,0.999320846136442,-0.02632150799036026,0.032943710684776306,0.008296909742057323,0.0015144944190979004,0.0032616257667541504,-0.004308044910430908
2025-09-18T12:35:24Z,-0.03579724803862421,-0.024334080970688038,-0.05972797576828689,-0.25586363673210144,-0.24823114275932312,-0.9342992901802063,-0.012693743140075453,-0.01752512749354969,-0.029634895454648712,0.9993265911865005,-0.026291528716683388,0.03167286142706871,0.013627450913190842,0.0011806488037109375,0.003693804144859314,-0.0005272030830383301
