timestamp,attitude_roll,attitude_pitch,attitude_yaw,gravity_x,gravity_y,gravity_z,quaternion_x,quaternion_y,quaternion_z,quaternion_w,rotation_rate_x,rotation_rate_y,rotation_rate_z,user_acceleration_x,user_acceleration_y,user_acceleration_z
2025-09-18T12:34:26Z,-0.006285719479252869,0.0011590610199259236,-0.002830968971426742,-0.21210063993930817,-0.24990132451057434,-0.9447553157806396,0.0005750783934594394,-0.0031436713032595635,-0.00141729820874825,0.9999938565549299,-0.005394681356847286,-0.003481874242424965,0.004307899624109268,-0.0007836669683456421,-0.0032727718353271484,0.00048404932022094727
2025-09-18T12:34:26Z,-0.006391709678313408,0.000992618111603753,-0.0027640988885269443,-0.21221767365932465,-0.24973008036613464,-0.944774329662323,0.0004918892107877033,-0.0031965318983847397,-0.0013836279146621855,0.9999938050034033,-0.010638193227350712,-0.006010196637362242,0.005397074390202761,-0.0014246851205825806,-0.0037855207920074463,0.0012445449829101562
2025-09-18T12:34:26Z,-0.006544264896057056,0.0007617024528528613,-0.002705724164315093,-0.2123766988515854,-0.24949955940246582,-0.9447994828224182,0.0003764221048609092,-0.0032726386969757697,-0.0013541005557584532,0.999993631775242,-0.011423598974943161,-0.0037609580904245377,0.0005174377001821995,0.001282915472984314,-0.00731891393661499,-0.0004934072494506836
2025-09-18T12:34:26Z,-0.006657609211925151,0.0005588116191689482,-0.0027225813523844692,-0.21247991919517517,-0.24931105971336365,-0.944826066493988,0.00027487254874847896,-0.003329175725190863,-0.0013622127988135626,0.9999934533729817,-0.007567316759377718,-0.0022499114274978638,0.00043618737254291773,-4.906952381134033e-05,-0.006579279899597168,0.0007976889610290527
2025-09-18T12:34:26Z,-0.006867145745306142,0.00039825576567846337,-0.0026502736558841875,-0.2126961499452591,-0.24914421141147614,-0.9448214173316956,0.00019457659734720172,-0.003433827060724115,-0.0013258123776603292,0.9999931636604356,-0.005940210539847612,-0.006266794167459011,0.006929554510861635,-0.002685636281967163,-0.003756701946258545,0.004730045795440674
2025-09-18T12:34:26Z,-0.006959613113040524,0.0002724274971183153,-0.0024577953870516182,-0.21283161640167236,-0.24898545444011688,-0.9448327422142029,0.0001319365108179257,-0.0034799644558346386,-0.0012293639958902468,0.99999312584035,-0.009109269827604294,-0.0043733203783631325,0.010784619487822056,-0.00101432204246521,-0.0034241676330566406,-0.0012115240097045898
2025-09-18T12:34:26Z,-0.00664870828444771,2.7500615237675788e-05,-0.0023643697698154205,-0.2125614881515503,-0.24873439967632294,-0.9449597001075745,9.82022905043873e-06,-0.0033243620945995725,-0.001182223838877836,0.9999937322611132,-0.016853079199790955,0.029006637632846832,0.0011091455817222595,0.004277750849723816,-0.0076212286949157715,-0.013238072395324707
2025-09-18T12:34:26Z,-0.005893245832295963,-0.0003666681216311678,-0.002491683717375855,-0.2118164598941803,-0.24838761985301971,-0.9452181458473206,-0.00018700414988804783,-0.002946388039510683,-0.0012452959457785926,0.9999948231082312,-0.025849759578704834,0.04218833148479462,-0.01037758868187666,0.0036839544773101807,-0.005807787179946899,-0.008246064186096191
2025-09-18T12:34:26Z,-0.005132550551913533,-0.0009173136171973955,-0.002745015472642758,-0.21103505790233612,-0.24791866540908813,-0.9455159902572632,-0.00046217709737581735,-0.0025656403727521235,-0.001371325662221203,0.999995619389561,-0.03423662856221199,0.023115970194339752,-0.009386902675032616,-0.00021636486053466797,-0.0011168569326400757,0.0020241141319274902
2025-09-18T12:34:26Z,-0.004902719865606612,-0.001574641172573156,-0.002848461940735324,-0.21079282462596893,-0.24731773138046265,-0.9457274079322815,-0.0007908086543714139,-0.002450232959942167,-0.0014222957955738814,0.9999956533009254,-0.03300366923213005,0.007244406268000603,-0.005777432583272457,0.0002275705337524414,-0.00022010505199432373,0.003985702991485596
2025-09-18T12:34:26Z,-0.004857547658933904,-0.0021834484794442674,-0.0029642129276811285,-0.21072201430797577,-0.2467651516199112,-0.9458875060081482,-0.0010953193467488807,-0.0024271493875640316,-0.0014794491862951762,0.9999953161638233,-0.024127056822180748,-0.0013946732506155968,-0.004912503995001316,0.0008871406316757202,-0.0016038864850997925,0.003146052360534668
2025-09-18T12:34:26Z,-0.0049317168380340086,-0.002553649504039881,-0.003046931900690527,-0.2107720673084259,-0.24643166363239288,-0.9459633231163025,-0.0012805756804059054,-0.002463905848754374,-0.0015203110212760411,0.9999949921813817,-0.010029975324869156,-0.009344472549855709,0.0025001363828778267,0.00015304982662200928,-0.0014934241771697998,0.0029109716415405273
2025-09-18T12:34:26Z,-0.005219768258786564,-0.0026233716992559116,-0.0029913439834058928,-0.21105842292308807,-0.2463541328907013,-0.9459196329116821,-0.0013155831704889183,-0.0026079143748794224,-0.0014922418376538123,0.9999945374474621,0.0007468052208423615,-0.01460645254701376,0.006212704814970493,0.0002551525831222534,-0.0015412867069244385,0.0016736388206481934
2025-09-18T12:34:26Z,-0.005522789745552334,-0.002567291140622092,-0.002839793269312018,-0.2113826870918274,-0.24637602269649506,-0.9458415508270264,-0.0012875599860124709,-0.0027595638187929033,-0.0014163450076566378,0.9999943060174471,0.0037868651561439037,-0.014514783397316933,0.008120981976389885,-0.0003606081008911133,-0.001335635781288147,0.00018334388732910156
2025-09-18T12:34:26Z,-0.005858907564959048,-0.002453487086367608,-0.0026170603687916526,-0.21175584197044373,-0.24643787741661072,-0.9457419514656067,-0.0012305702421065085,-0.0029278397784485936,-0.0013049295861306892,0.99999406379058,0.006532280705869198,-0.01271369494497776,0.008612667210400105,0.0005728006362915039,-0.0016455501317977905,-0.0010579228401184082
2025-09-18T12:34:26Z,-0.006103739881550193,-0.0025151551023251846,-0.0023987713638316515,-0.21204179525375366,-0.24633446335792542,-0.9457048177719116,-0.0012612308345738967,-0.0030503523212165487,-0.001195540922271516,0.9999938248492423,-0.0011716871522367,-0.009300272911787033,0.00925030279904604,-0.00019183754920959473,-0.0017325431108474731,-0.0022425055503845215
2025-09-18T12:34:26Z,-0.0063485647789223885,-0.0025769101247262198,-0.002180521417925607,-0.21232768893241882,-0.24623095989227295,-0.9456676244735718,-0.0012919082571575524,-0.003172867847665465,-0.0010861642039844647,0.9999935248465908,-0.008875655010342598,-0.005886849947273731,0.009887938387691975,-0.0009565353393554688,-0.0018196702003479004,-0.0034270882606506348
2025-09-18T12:34:26Z,-0.006497751786856928,-0.0028211660067099945,-0.0019747006968966253,-0.21252033114433289,-0.2459571808576584,-0.9456956386566162,-0.001413782184641904,-0.0032474726573946066,-0.000982761205645848,0.9999932363872743,-0.01125646848231554,-0.010222705081105232,0.009949125349521637,-0.0018536895513534546,-0.004824355244636536,0.0008601546287536621
2025-09-18T12:34:26Z,-0.006502959968100627,-0.002960620040157831,-0.0019026941922747533,-0.21254338324069977,-0.24581024050712585,-0.9457286596298218,-0.001483394264144967,-0.00325006094672994,-0.0009465276972226013,0.9999931684281822,-0.007736543659120798,0.0010898727923631668,-4.976615309715271e-05,-0.001775890588760376,-0.006487593054771423,-0.0023514628410339355
2025-09-18T12:34:26Z,-0.006487306153053861,-0.0031006573306955557,-0.0019402601382746282,-0.21251946687698364,-0.2456853687763214,-0.9457664489746094,-0.001553465916806461,-0.0032421379569617884,-0.0009650949337862125,0.9999930705248323,-0.006781599950045347,0.0034114066511392593,-0.0023378320038318634,-0.00035443902015686035,-0.004533290863037109,-0.0013327598571777344
2025-09-18T12:34:26Z,-0.006371839339055538,-0.0032695331204324325,-0.0019944205582413128,-0.21239705383777618,-0.24553659558296204,-0.9458326101303101,-0.0016379337677523364,-0.0031842782871120113,-0.0009919955131626188,0.9999930825478636,-0.010539308190345764,0.0036373266484588385,-0.0019164072582498193,-0.0010440647602081299,-0.00013497471809387207,0.0009445548057556152
2025-09-18T12:34:26Z,-0.00629255494631445,-0.003479114352804639,-0.0019742131486107624,-0.21232740581035614,-0.24533389508724213,-0.9459007978439331,-0.001742652598038999,-0.0031445489702256026,-0.0009816269505328878,0.999993023880134,-0.01373276673257351,0.0019782925955951214,0.00029348733369261026,-0.00039668381214141846,-0.0005714595317840576,0.0007078051567077637
2025-09-18T12:34:26Z,-0.006273151683378094,-0.0038230672599416098,-0.0019510109143112955,-0.21231535077095032,-0.24500331282615662,-0.945989191532135,-0.0019145819053747425,-0.003134698801364691,-0.0009695030758634235,0.9999927755941604,-0.021222053095698357,0.0028886329382658005,0.0006240714574232697,0.0001485198736190796,-0.00011852383613586426,-0.001155555248260498
2025-09-18T12:34:26Z,-0.006161969750323929,-0.004209782412495493,-0.0019325031494911262,-0.2122153639793396,-0.24463313817977905,-0.9461074471473694,-0.0021078556830178494,-0.003078937907790624,-0.0009597595820790453,0.9999925735684427,-0.01875101961195469,0.007152754347771406,0.0009440705180168152,0.00028936564922332764,-0.0007553398609161377,-0.0031868815422058105
2025-09-18T12:34:26Z,-0.0060261514152703845,-0.00451886022557557,-0.0019297826412273062,-0.2120879888534546,-0.2443397492170334,-0.9462118148803711,-0.0022623241708952142,-0.0030108819761510888,-0.0009580765175950113,0.999992444755787,-0.010939768515527248,0.006368021946400404,-0.0015914889518171549,0.0001507401466369629,-0.003398209810256958,-0.0020194649696350098
2025-09-18T12:34:26Z,-0.005831487333347718,-0.004689333278121053,-0.0019236362970731177,-0.2119055688381195,-0.2441769540309906,-0.9462947249412537,-0.0023474578844655306,-0.002913475092774588,-0.0009549748569272371,0.9999925267758484,-0.001908385194838047,0.003530356101691723,-0.0004304253961890936,-0.0004474371671676636,-0.004778817296028137,-0.000674128532409668
2025-09-18T12:34:26Z,-0.005740121810153326,-0.004701310317595126,-0.0019639054407973745,-0.21180911362171173,-0.24417391419410706,-0.9463170766830444,-0.002353460470279155,-0.0028677394788924494,-0.0009751993165390426,0.9999926265822914,0.0009922997560352087,0.002582297194749117,-0.002508131554350257,-0.00040146708488464355,-0.004286527633666992,7.301568984985352e-05
2025-09-18T12:34:26Z,-0.005669019168581352,-0.0045819921915884075,-0.002060240046280127,-0.21171772480010986,-0.24430686235427856,-0.9463031888008118,-0.0022939035113755143,-0.00283213681488213,-0.0010236191517157013,0.9999928495103281,0.006245797500014305,0.0008303752401843667,-0.0018558098236098886,-0.0005004554986953735,-0.004865691065788269,-0.0004762411117553711
2025-09-18T12:34:26Z,-0.005672812930406551,-0.004454690884795659,-0.002120877800146001,-0.2117060124874115,-0.24443992972373962,-0.9462714791297913,-0.002230341407193575,-0.0028340323259987647,-0.0010541142561297891,0.9999928541946089,0.0027834775391966105,-0.001980814151465893,-0.006086078006774187,0.0004756152629852295,-0.002598389983177185,-0.0017638206481933594
2025-09-18T12:34:26Z,-0.005766362506628668,-0.004424766657690213,-0.0022192962800405436,-0.21177002787590027,-0.24448859691619873,-0.9462445378303528,-0.002215570460038398,-0.002880713718916307,-0.0011032619934924917,0.9999927023583384,0.0016728556947782636,-0.00462306197732687,-0.006473165471106768,0.00037351250648498535,-0.0023305565118789673,-0.0006384849548339844
2025-09-18T12:34:26Z,-0.005852625775020981,-0.004320781542327934,-0.002336798779508297,-0.2118222713470459,-0.24461133778095245,-0.9462011456489563,-0.0021637976895200798,-0.0029237760146966197,-0.0011620695579551968,0.9999926012676783,0.0035247202031314373,-0.00949832797050476,-0.004699692130088806,0.0007129758596420288,-0.003090113401412964,0.001469731330871582
2025-09-18T12:34:26Z,-0.005912164644243943,-0.004244021844190938,-0.0024196894643543285,-0.211857870221138,-0.24470114707946777,-0.9461699724197388,-0.0021255751642424684,-0.0029535022849745533,-0.0012035637588138541,0.9999925271954523,0.001839619129896164,-0.007981589064002037,-0.0010876001324504614,9.791553020477295e-05,-0.002939566969871521,0.00026494264602661133
2025-09-18T12:34:26Z,-0.006184333045242361,-0.004193867426394151,-0.002473984003549451,-0.21210184693336487,-0.2447599172592163,-0.946100115776062,-0.0021007455551253504,-0.003089558611417964,-0.0012304990267950156,0.9999922455848718,0.001695115934126079,-0.007851523347198963,-0.0007778506260365248,0.00044555962085723877,-0.0017265081405639648,0.00016325712203979492
2025-09-18T12:34:26Z,-0.006380878092280095,-0.004164513412146084,-0.0024322027302948147,-0.21229815483093262,-0.24477912485599518,-0.9460511207580566,-0.002086122913325904,-0.00318789208920685,-0.0012094489292812564,0.9999920266460487,-0.00017075391951948404,-0.005890589207410812,0.0027178709860891104,-0.00036440789699554443,-0.0013443082571029663,1.1861324310302734e-05
2025-09-18T12:34:26Z,-0.006503044683634525,-0.004121441368908942,-0.0023251324375554564,-0.21244028210639954,-0.24479784071445465,-0.9460143446922302,-0.0020644870199012714,-0.0032491117790046323,-0.001155856876583777,0.9999919295954878,-0.0007094586617313325,-0.005603864323347807,0.005513047333806753,0.0005142688751220703,-0.0009599179029464722,0.0007699728012084961
2025-09-18T12:34:26Z,-0.006545116338819955,-0.00407280832099787,-0.0022541401081388694,-0.21249765157699585,-0.24482926726341248,-0.9459933042526245,-0.002040078951067856,-0.0032702483221124924,-0.0011203972176373987,0.9999919398496822,0.0006476115086115897,-0.0020232442766427994,0.004487636499106884,-0.0011671483516693115,-0.003695875406265259,5.602836608886719e-05
2025-09-18T12:34:26Z,-0.006580670613107933,-0.004023760980655475,-0.0021860268662245263,-0.2125481516122818,-0.2448616921901703,-0.9459735751152039,-0.0020154633846137557,-0.0032881217102118695,-0.0010863853338888556,0.9999919839662237,0.0036355850752443075,-1.1359341442584991e-05,0.002180730924010277,-0.0001579374074935913,-0.0036207735538482666,-0.0004850625991821289
2025-09-18T12:34:26Z,-0.006473019424321991,-0.003954613882103703,-0.0021023883048249905,-0.2124669998884201,-0.24490994215011597,-0.9459793567657471,-0.0019806963795764797,-0.003234417407408768,-0.0010447868381535932,0.9999922675553047,0.0023118513636291027,0.007391852326691151,0.0026951548643410206,-0.00032770633697509766,-0.0021844804286956787,-0.0019297003746032715
2025-09-18T12:34:27Z,-0.006295620128877113,-0.003963602749619346,-0.002043416276460839,-0.21231386065483093,-0.2448892593383789,-0.9460190534591675,-0.001985005314351948,-0.00314577216549225,-0.0010154625547387141,0.9999925870407655,-0.0029722237959504128,0.005631878972053528,0.005940989591181278,-0.00023508071899414062,-0.0014376193284988403,-0.001406848430633545
2025-09-18T12:34:27Z,-0.006304397296488889,-0.004037402886593521,-0.001923511977497385,-0.21235208213329315,-0.2447945922613144,-0.9460349678993225,-0.0020217207492998217,-0.003150244069239349,-0.0009553857751612617,0.9999925350843951,-0.0022998261265456676,0.0010987073183059692,0.002669601235538721,-0.0015335232019424438,-0.004326850175857544,0.0005256533622741699
2025-09-18T12:34:27Z,-0.006278496573961237,-0.004077130941413718,-0.0018779562878601748,-0.21233896911144257,-0.24474754929542542,-0.9460501074790955,-0.002041500786037242,-0.0031373210615919175,-0.0009325718812625137,0.9999925614695915,-0.0019645760767161846,-0.0033866968005895615,0.003985489718616009,-0.0019277632236480713,-0.005112811923027039,0.001298069953918457
2025-09-18T12:34:27Z,-0.006479326289631659,-0.004020044391398132,-0.0018647014712313084,-0.2125321626663208,-0.24479889869689941,-0.9459934234619141,-0.00201302989521052,-0.0032377754656503937,-0.0009258320410096309,0.999992311513719,0.002320901956409216,-0.010543027892708778,-0.0001378096640110016,-0.00112093985080719,-0.006799414753913879,-0.0010437965393066406
2025-09-18T12:34:27Z,-0.006722883141399584,-0.003921540911789818,-0.0018907228932509164,-0.2127559334039688,-0.24489758908748627,-0.9459176063537598,-0.001963934965818093,-0.0033595735758408284,-0.0009387631309211294,0.999992010059632,0.011251328513026237,-0.009837129153311253,-0.003071247134357691,-0.0022202879190444946,-0.007210001349449158,-0.0007147789001464844
2025-09-18T12:34:27Z,-0.006927834345771916,-0.0035542487062733157,-0.0018669545112086812,-0.212955042719841,-0.24524056911468506,-0.9457839131355286,-0.0017803456028853337,-0.0034622446537181588,-0.0009273143267502194,0.9999919103808426,0.02125018648803234,-0.007490461692214012,0.003291829489171505,-0.0036295801401138306,-0.00611722469329834,0.0036235451698303223
2025-09-18T12:34:27Z,-0.007045363409881909,-0.0030681376969048002,-0.0017974964911441256,-0.21308262646198273,-0.24568666517734528,-0.9456393718719482,-0.0015372242336463007,-0.0035212904188427064,-0.0008933375450340926,0.9999921344767917,0.02303825132548809,0.0004690689966082573,0.0008715484291315079,-8.249282836914062e-05,-0.007931321859359741,-0.003956735134124756
2025-09-18T12:34:27Z,-0.006447914180804964,-0.0028119152568254102,-0.0018963490804410638,-0.21249264478683472,-0.24594974517822266,-0.9457037448883057,-0.001409006187015163,-0.0032226140008600355,-0.0009436358606106031,0.9999933021923862,0.008280574344098568,0.016968291252851486,-0.005004615057259798,0.001092866063117981,-0.004816800355911255,-0.004201114177703857
2025-09-18T12:34:27Z,-0.0058504445176042995,-0.0025557591820272005,-0.0019953950796610795,-0.21190258860588074,-0.24621276557445526,-0.9457677006721497,-0.001280791698014415,-0.0029239394887731426,-0.0009939542773832759,0.9999943503667484,-0.006477104499936104,0.03346751257777214,-0.01088077761232853,0.002268165349960327,-0.0017023086547851562,-0.004445910453796387
2025-09-18T12:34:27Z,-0.005176506277804105,-0.0028653640456573295,-0.002180875588997214,-0.2112194299697876,-0.2459578514099121,-0.945986807346344,-0.0014354982645558693,-0.0025866839169860194,-0.00108672471563821,0.9999949920920836,-0.024858884513378143,0.019720714539289474,-0.006596476770937443,-0.0008711665868759155,-0.0011406242847442627,0.0035921335220336914
2025-09-18T12:34:27Z,-0.0049666766183608,-0.003441705456264802,-0.0023872245056781143,-0.21097031235694885,-0.24545453488826752,-0.9461731314659119,-0.0017238095880445488,-0.0024812764400754454,-0.001189333144287267,0.9999946670754887,-0.02732359804213047,0.007024508900940418,-0.009927422739565372,0.0004048198461532593,-0.005030646920204163,0.0051403045654296875
2025-09-18T12:34:27Z,-0.004837980197694501,-0.003963887305298679,-0.002669815393089543,-0.2107788473367691,-0.2450181394815445,-0.94632887840271,-0.001985164094976255,-0.0024163353574804362,-0.0013301066062466557,0.9999941320298245,-0.0227060504257679,0.001970101147890091,-0.011813867837190628,0.0017546266317367554,-0.004300326108932495,0.005376636981964111
2025-09-18T12:34:27Z,-0.004894017480438745,-0.004238418557330739,-0.002877424275919185,-0.2107805609703064,-0.2448008507490158,-0.9463847279548645,-0.0021227199088580074,-0.0024439496097728533,-0.001433518545333254,0.9999936270076136,-0.011551559902727604,-0.004707544110715389,-0.007273534312844276,0.0012301653623580933,-0.0006120353937149048,0.004453003406524658
2025-09-18T12:34:27Z,-0.00504251014279667,-0.004492397161045738,-0.002936259220176669,-0.2109067589044571,-0.24457235634326935,-0.9464157223701477,-0.002249888916079717,-0.002517945926569883,-0.0014624576634828228,0.9999931100783751,-0.010633869096636772,-0.0065606264397501945,-0.000270291231572628,0.0010560452938079834,0.001705363392829895,0.003611922264099121
2025-09-18T12:34:27Z,-0.005219043670716742,-0.004600720437272103,-0.002837180752856932,-0.21109861135482788,-0.24444928765296936,-0.946404755115509,-0.0023040501674983834,-0.0026062464241705446,-0.0014125786752920083,0.9999928231261278,-0.00685765640810132,-0.0037561252247542143,0.007166015915572643,0.00119037926197052,0.0031655877828598022,-0.00046622753143310547
2025-09-18T12:34:27Z,-0.005239131556524438,-0.004802844174245683,-0.002659526001264704,-0.21116212010383606,-0.24422119557857513,-0.9464494585990906,-0.002404892837436621,-0.0026163596429348204,-0.0013234635663816976,0.9999927955079584,-0.008812438696622849,-0.0029065648559480906,0.009833745658397675,0.0012879520654678345,0.0025164037942886353,-0.002616405487060547
2025-09-18T12:34:27Z,-0.005197296651570383,-0.005080246223675202,-0.0024020131092958516,-0.211186945438385,-0.24390526115894318,-0.9465253949165344,-0.0025432308773866877,-0.0025955843784039763,-0.0011943974346979402,0.9999927130053385,-0.015375657007098198,-0.0034888009540736675,0.011668393388390541,0.001601099967956543,0.0030782967805862427,-0.0033682584762573242
2025-09-18T12:34:27Z,-0.005245472666778961,-0.005452658984057376,-0.002081266518844424,-0.21131278574466705,-0.2434861660003662,-0.9466052055358887,-0.002729044495333313,-0.0026198850073173847,-0.0010334751805158222,0.9999923318240582,-0.016988936811685562,-0.00029606488533318043,0.014065276831388474,0.0003791898488998413,0.0007286816835403442,-0.000798642635345459
2025-09-18T12:34:27Z,-0.005319109936265379,-0.005805606203433188,-0.0018984807658912622,-0.21142838895320892,-0.2431139349937439,-0.9466750621795654,-0.002905311940121811,-0.0026567839364570103,-0.0009415127258398393,0.9999918256561305,-0.012274866923689842,-0.007322209887206554,0.007221465930342674,-0.0006561130285263062,-0.0032365769147872925,0.0033768415451049805
2025-09-18T12:34:27Z,-0.005354968538315295,-0.005994847581902045,-0.0018578037648059656,-0.21147269010543823,-0.24292618036270142,-0.946713387966156,-0.002999894336665006,-0.0026746835584607717,-0.0009208687060514808,0.9999915107136004,-0.005977965891361237,0.00014135101810097694,-0.0019166897982358932,0.0010381639003753662,-0.005377545952796936,0.0012323260307312012
2025-09-18T12:34:27Z,-0.005255965917640589,-0.006144057118463655,-0.0020511760430079215,-0.2113310694694519,-0.24282464385032654,-0.9467710256576538,-0.0030747067279117057,-0.0026248155428403672,-0.0010175062525253093,0.9999913063875447,-0.004890848882496357,0.009977556765079498,-0.012050089426338673,0.0026604533195495605,-0.0024774372577667236,-0.0021279454231262207
2025-09-18T12:34:27Z,-0.005040863710420709,-0.006334347646611873,-0.0023623745136199413,-0.21105027198791504,-0.2427084743976593,-0.9468634724617004,-0.0031701333502770377,-0.00251667378719216,-0.0011731946906226387,0.999991117556784,-0.011523466557264328,0.002760504372417927,-0.011736462824046612,0.0017283856868743896,0.00286981463432312,0.0020471811294555664
2025-09-18T12:34:27Z,-0.005064324169910475,-0.006639585985139281,-0.0026347793512740683,-0.2110050618648529,-0.2424752563238144,-0.9469332695007324,-0.003323109485013148,-0.00252777001203955,-0.0013089717030774827,0.9999903389718512,-0.020735960453748703,-0.0015346789732575417,-0.014251673594117165,0.002006322145462036,0.0036645084619522095,0.0015422701835632324
2025-09-18T12:34:27Z,-0.00506310064612905,-0.00699640537705506,-0.0029711042425867563,-0.21092066168785095,-0.24220630526542664,-0.9470208883285522,-0.00350194157148933,-0.0025263328648505987,-0.0014766820382179316,0.9999894824488287,-0.017921995371580124,-0.0027330564334988594,-0.011099051684141159,0.0010212957859039307,0.0033208876848220825,0.0007140040397644043
2025-09-18T12:34:27Z,-0.005067267756186802,-0.007343404428295318,-0.0032055429135269056,-0.21086670458316803,-0.24192564189434052,-0.9471046328544617,-0.00367573861084003,-0.0025277262054014,-0.0015934522636022622,0.9999886865340886,-0.013437602669000626,-0.0014165117172524333,-0.010388979688286781,0.0006579756736755371,0.0013062357902526855,-0.0012975335121154785
2025-09-18T12:34:27Z,-0.005055219957578808,-0.0076018447082488085,-0.003453345381792739,-0.21079394221305847,-0.241731658577919,-0.9471703767776489,-0.0038052599142558196,-0.002521022486024746,-0.0017170467334327022,0.9999880548032166,-0.007200754713267088,0.005071050953119993,-0.009752456098794937,-0.00042313337326049805,-0.0026384294033050537,-0.0026887059211730957
2025-09-18T12:34:27Z,-0.005009243208968585,-0.007680750750390038,-0.003735034795952324,-0.21068036556243896,-0.24171485006809235,-0.9471999406814575,-0.003845024760609959,-0.0024974243445874426,-0.0018578781352028943,0.9999877152867107,0.0002050674520432949,0.007102550007402897,-0.012799728661775589,-2.9325485229492188e-05,-0.0014784634113311768,-0.002727508544921875
2025-09-18T12:34:27Z,-0.004828997930652626,-0.007597044511081953,-0.003951650065733606,-0.21045561134815216,-0.24183884263038635,-0.9472182393074036,-0.003803265280029775,-0.0024069693547425614,-0.0019666322854303866,0.9999879210600461,0.007207951042801142,-0.0007935445755720139,-0.008714079856872559,0.0014491081237792969,-0.0026474744081497192,-0.0017614960670471191
2025-09-18T12:34:27Z,-0.004963206574285599,-0.007414125389332668,-0.004151405733041194,-0.2105327695608139,-0.24205341935157776,-0.9471462965011597,-0.003712185865139613,-0.002473883651915617,-0.002066481332758928,0.9999879051297348,0.010404965840280056,-0.009113225154578686,-0.006375560536980629,-0.0008199214935302734,-0.002620801329612732,-4.45246696472168e-05
2025-09-18T12:34:27Z,-0.005167152202705446,-0.007144369989047883,-0.004323518167367858,-0.2106827199459076,-0.24234460294246674,-0.947038471698761,-0.003577742217717397,-0.0025758285985788163,-0.0021525074716978194,0.9999879473142023,0.015216587111353874,-0.012315786443650723,-0.004074438940733671,-0.0015235692262649536,-0.005250871181488037,-0.00134199857711792
2025-09-18T12:34:27Z,-0.005389797409296725,-0.006735291198650282,-0.004445576843973775,-0.21086260676383972,-0.24275751411914825,-0.9468926787376404,-0.0033736091137468367,-0.00268738821221108,-0.0022136906870811996,0.9999881640601248,0.02039721980690956,-0.00979482289403677,-0.004746458493173122,-0.0011281222105026245,-0.005440741777420044,-0.004043519496917725
2025-09-18T12:34:27Z,-0.0055680695836621144,-0.006270367038840115,-0.004544241686332526,-0.21100619435310364,-0.2432185411453247,-0.9467423558235168,-0.0031414840554933703,-0.002776887115562343,-0.0022633707151368644,0.9999885545641848,0.02199217490851879,-0.005951257422566414,-0.0060939546674489975,-0.0009508430957794189,-0.0062207430601119995,-0.0005955696105957031
2025-09-18T12:34:27Z,-0.00579061343597296,-0.005857355563268275,-0.004664564672408517,-0.21118631958961487,-0.24363476037979126,-0.9465951919555664,-0.0029354062486879194,-0.002888452182049269,-0.002323781278801128,0.9999887298737397,0.015758847817778587,-0.006659707985818386,-0.0070403083227574825,-0.0016237050294876099,-0.0045773983001708984,0.0006557703018188477
2025-09-18T12:34:27Z,-0.005967360901021438,-0.005621531854104205,-0.004794731740188248,-0.21132084727287292,-0.24388505518436432,-0.9465007185935974,-0.0028178947795232715,-0.0029769174981919915,-0.002388957231987869,0.9999886695599934,0.007864524610340595,-0.005495334975421429,-0.006940898485481739,-0.0012996494770050049,-0.0025274157524108887,0.0026805996894836426
2025-09-18T12:34:27Z,-0.006020713426717824,-0.005555831923230787,-0.00498066802332189,-0.21132491528987885,-0.24398556351661682,-0.9464738965034485,-0.002785388105207309,-0.0030034135087633816,-0.0024819482273818355,0.9999884691657366,0.0017918446101248264,-0.0006380509585142136,-0.01083223894238472,0.0005554854869842529,-0.0009566247463226318,0.0008713603019714355
2025-09-18T12:34:27Z,-0.006009598215646045,-0.005578378569351103,-0.005195088388506108,-0.21126098930835724,-0.24400827288627625,-0.9464823007583618,-0.0027969688860015347,-0.0029975279506952155,-0.002589138697969796,0.999988183101879,-0.0039037135429680347,0.002742621349170804,-0.007802045904099941,-0.00019618868827819824,5.05298376083374e-05,0.0013549327850341797
2025-09-18T12:34:27Z,-0.005811355423410416,-0.005629942607471033,-0.0054595298915528735,-0.2110075056552887,-0.24401377141475677,-0.946537435054779,-0.002822877083393341,-0.0028979672323084476,-0.002721559969033683,0.9999880764566182,-0.005664661526679993,0.01770322397351265,-0.017013952136039734,-0.0016158521175384521,-0.0008889436721801758,-0.004314899444580078
2025-09-18T12:34:27Z,-0.005020637199929449,-0.005693002943410503,-0.006051801481036575,-0.2101113498210907,-0.24407567083835602,-0.9467207789421082,-0.0028540716679712505,-0.00250168122251185,-0.0030187288757325625,0.9999882011081463,-0.004367253743112087,0.03404242545366287,-0.02951478585600853,-0.0025358498096466064,-0.0005924701690673828,-0.004513204097747803
2025-09-18T12:34:27Z,-0.004229982458182682,-0.0057565187795714685,-0.006644015907314885,-0.20921505987644196,-0.24413704872131348,-0.9469034671783447,-0.0028852591803891774,-0.002105407754740057,-0.0033158933357989536,0.9999880844587309,-0.003069845959544182,0.0503816232085228,-0.042015619575977325,-0.003456026315689087,-0.00029656291007995605,-0.004712224006652832
2025-09-18T12:34:27Z,-0.003166175094105589,-0.005748281868184963,-0.007654484778691537,-0.20795530080795288,-0.2443520724773407,-0.9471254944801331,-0.002880171312730021,-0.0015720688654993259,-0.003822662690748385,0.9999872515004501,0.0013890033587813377,0.05631771311163902,-0.05700283497571945,-0.0038231760263442993,-0.0016229748725891113,0.0008376240730285645
2025-09-18T12:34:27Z,-0.00211111137025916,-0.00574097083690258,-0.009027970686638383,-0.20661264657974243,-0.2446402758359909,-0.9473448991775513,-0.002875215402444333,-0.0010425831416307999,-0.004510919048421901,0.9999851337234601,0.0023801964707672596,0.048866596072912216,-0.07744597643613815,-0.0015208721160888672,-0.002409636974334717,0.004060566425323486
2025-09-18T12:34:27Z,-0.0011144089362794354,-0.005789554477359447,-0.010786078100008258,-0.20522834360599518,-0.24495354294776917,-0.9475648403167725,-0.0028977358116781095,-0.0005415824836940608,-0.005391376821668757,0.9999810647450836,-0.0031739608384668827,0.0420038141310215,-0.09480833262205124,-0.0016372054815292358,0.0012435466051101685,0.005968630313873291
2025-09-18T12:34:27Z,-0.0004619542202464537,-0.005960903466829026,-0.012816636314203511,-0.20410113036632538,-0.24520520865917206,-0.9477431774139404,-0.0029818663710806876,-0.0002118718259294481,-0.006407557625853821,0.9999749461878529,-0.00866423174738884,0.03220028430223465,-0.10640972852706909,-0.00029237568378448486,0.0022667646408081055,0.006137192249298096
2025-09-18T12:34:27Z,0.00012191981141035436,-0.006177125790793053,-0.015123814371940733,-0.20296840369701385,-0.24546945095062256,-0.9479179978370667,-0.00308800895301585,8.431304862503831e-05,-0.007561987911426963,0.9999665566086678,-0.012945087626576424,0.030691806226968765,-0.12099491059780121,0.0016146451234817505,-0.0005352944135665894,0.0016862154006958008
2025-09-18T12:34:27Z,0.0008710485854326384,-0.006413879505496489,-0.017734683995406873,-0.2016013264656067,-0.24577437341213226,-0.94813072681427,-0.00320294630865179,0.000463941574757814,-0.00886857685348998,0.999955339514397,-0.008779607713222504,0.04095505177974701,-0.13767878711223602,0.0042287856340408325,-0.0035913586616516113,-0.0012673139572143555
2025-09-18T12:34:27Z,0.001496816876498287,-0.006520291351371641,-0.020791483157803284,-0.20023714005947113,-0.24629110097885132,-0.948285698890686,-0.0032521829600100495,0.0007822549589398217,-0.010397936646491105,0.9999402794382082,-0.0014479653909802437,0.03051312081515789,-0.1521499752998352,-0.00022166967391967773,-0.0053871870040893555,-0.00011068582534790039
2025-09-18T12:34:27Z,0.0020681067278119497,-0.006517444381714693,-0.024079484729759855,-0.1988641768693924,-0.2469554990530014,-0.9484018087387085,-0.003246029212723425,0.0010732059106080016,-0.01204275087512631,0.9999216139512431,0.004822493996471167,0.03538129851222038,-0.16719746589660645,-7.821619510650635e-05,-0.007429838180541992,-0.00647425651550293
2025-09-18T12:34:27Z,0.0027784475047763573,-0.006416799900926837,-0.027634356091079466,-0.197289377450943,-0.24776317179203033,-0.9485200643539429,-0.0031888908275346556,0.001433413134259836,-0.013821111463791653,0.9998983165112871,0.00789421983063221,0.03929609805345535,-0.1776006817817688,-0.0001315772533416748,-0.0069473981857299805,-0.009043574333190918
2025-09-18T12:34:27Z,0.0034980033835921584,-0.006246696720844847,-0.03126532102098844,-0.19568395614624023,-0.24864865839481354,-0.9486209154129028,-0.0030956166850185395,0.0017976027293071695,-0.01563738622952666,0.9998712871866905,0.012281020171940327,0.03590523824095726,-0.17927467823028564,-0.0017568320035934448,-0.003983199596405029,-0.007896482944488525
2025-09-18T12:34:27Z,0.0041247057512220795,-0.005905878721668462,-0.03483867375778955,-0.19417883455753326,-0.24968118965625763,-0.9486590027809143,-0.002916558077977598,0.00211346508107736,-0.017424432689401203,0.9998416581206514,0.02297283336520195,0.02917218580842018,-0.17222295701503754,-0.002815723419189453,-0.001330539584159851,-0.0035545825958251953
2025-09-18T12:34:28Z,0.004598337098041216,-0.005258387628392796,-0.03815578803722855,-0.19288237392902374,-0.25095054507255554,-0.9485885500907898,-0.0025848450042659952,0.0023488964918819467,-0.019082664732382612,0.9998117833835939,0.04181278124451637,0.019827812910079956,-0.15507717430591583,-0.0024132579565048218,0.000409930944442749,0.00013637542724609375
2025-09-18T12:34:28Z,0.004840837546402281,-0.003944729050630476,-0.040665770436955954,-0.19201093912124634,-0.25268951058387756,-0.9483036398887634,-0.0019227392549506623,0.002460012407642169,-0.020336158591310168,0.9997882981901256,0.06038345396518707,0.017467880621552467,-0.1259792298078537,-0.0015128254890441895,0.002928599715232849,0.0006774067878723145
2025-09-18T12:34:28Z,0.005086641866814698,-0.0026316729006116415,-0.04317607067953636,-0.1911352127790451,-0.254425972700119,-0.9480162262916565,-0.0012606242923075847,0.0025711274136829883,-0.02158961611622947,0.9997628042716844,0.07895413041114807,0.015107947401702404,-0.09688128530979156,-0.0006166994571685791,0.005444705486297607,0.0012158751487731934
2025-09-18T12:34:28Z,0.00535307300782068,-0.0009847547117432236,-0.04495620349216897,-0.19042722880840302,-0.25633373856544495,-0.9476447105407715,-0.0004320928757679235,0.0026869235930606084,-0.0224774433913709,0.9997436374393115,0.08721363544464111,0.0157054141163826,-0.06714476644992828,0.001317337155342102,0.006197094917297363,0.001031339168548584
2025-09-18T12:34:28Z,0.005719731590287419,0.0007813100761893139,-0.046100935056993066,-0.18978771567344666,-0.25822871923446655,-0.947258472442627,0.0004564649824526833,0.00285009809387964,-0.023047214128752762,0.9997301807350771,0.08946304023265839,0.0188100915402174,-0.04222380369901657,0.0033737272024154663,0.004367738962173462,-0.0005476474761962891
2025-09-18T12:34:28Z,0.006167602424353726,0.0025112313936785082,-0.04680778004690747,-0.18918415904045105,-0.2600030303001404,-0.9468937516212463,0.0013274317516347245,0.003053565969191289,-0.023397753283736764,0.9997206701412789,0.08653106540441513,0.025374269112944603,-0.027212239801883698,0.004403308033943176,0.0012515485286712646,-0.0026323795318603516
2025-09-18T12:34:28Z,0.006683567838846015,0.004185455464441731,-0.04725765788894914,-0.18858256936073303,-0.2616736888885498,-0.9465534687042236,0.0021710851977149916,0.00329139385381938,-0.0236194559513147,0.9997132109687923,0.08350026607513428,0.0276759322732687,-0.018560614436864853,0.004201054573059082,-0.0018965601921081543,-0.0026320219039916992
2025-09-18T12:34:28Z,0.007169072099299202,0.005803840888190174,-0.047568824811453955,-0.18804585933685303,-0.2632638216018677,-0.946219265460968,0.002986324459994253,0.0035144860143009587,-0.02377151793230323,0.9997067832955622,0.0834183320403099,0.017282431945204735,-0.014197410084307194,0.0033495575189590454,-0.0039446353912353516,0.0008192658424377441
2025-09-18T12:34:28Z,0.007477604805520594,0.007440498425300814,-0.047857064744742626,-0.18768282234668732,-0.2648659944534302,-0.9458441734313965,0.0038086043814409645,0.003648686781159783,-0.02391201130136901,0.9997001381175927,0.08299066871404648,0.013017423450946808,-0.014271839521825314,0.005034223198890686,-0.00676119327545166,-0.0009621977806091309
2025-09-18T12:34:28Z,0.007699961780885658,0.009078981301574203,-0.04818775116006529,-0.18739059567451477,-0.26647743582725525,-0.9454494118690491,0.004630874653155509,0.0037394521229810267,-0.02407364584653938,0.9996924728917688,0.08029012382030487,0.005835631396621466,-0.01585695892572403,0.005875155329704285,-0.0074177086353302,-0.0004572272300720215
2025-09-18T12:34:28Z,0.007690761267820895,0.01062744109183554,-0.04855799160940117,-0.18730700016021729,-0.2680108845233917,-0.9450324177742004,0.0054054413038270455,0.003715185908874114,-0.02425566053593404,0.9996843008432089,0.07376225292682648,-0.00779948802664876,-0.018353525549173355,0.0051485151052474976,-0.007362276315689087,0.001018226146697998
2025-09-18T12:34:28Z,0.007418339909012547,0.0120416885234926,-0.048988798084740354,-0.18745611608028412,-0.2694288194179535,-0.9445995688438416,0.006109803314717321,0.0035605212635689207,-0.024469011784604814,0.9996755834741206,0.06574861705303192,-0.02031395584344864,-0.021452926099300385,0.003939345479011536,-0.008161455392837524,0.0020110607147216797
2025-09-18T12:34:28Z,0.00689273350729241,0.013319936919434072,-0.049533445375224236,-0.1878143697977066,-0.2707400619983673,-0.944153368473053,0.0067431818966915144,0.0032803001700599656,-0.02474054999799811,0.999665745198303,0.05859063193202019,-0.03132262080907822,-0.02607681415975094,0.0031705349683761597,-0.009606629610061646,0.0014577507972717285
2025-09-18T12:34:28Z,0.006258659649670534,0.01450541070745946,-0.05016770002307858,-0.18825124204158783,-0.27198076248168945,-0.943709671497345,0.007328810281156141,0.002946353918508184,-0.025057749633756173,0.999654751259616,0.055108606815338135,-0.035999830812215805,-0.033368270844221115,0.004142850637435913,-0.0133608877658844,-0.00023621320724487305
2025-09-18T12:34:28Z,0.005560522680199331,0.01565020807405095,-0.050974075086364604,-0.18870346248149872,-0.27321603894233704,-0.9432623982429504,0.007893303553268604,0.0025798554608361694,-0.025461652001144374,0.9996412702417746,0.05776394158601761,-0.03603163734078407,-0.04566294699907303,0.005272045731544495,-0.016535311937332153,-0.0012583732604980469
2025-09-18T12:34:28Z,0.00490410248890221,0.01689266786380477,-0.05207722896400514,-0.18903905153274536,-0.27460023760795593,-0.9427931904792786,0.0085071839795321,0.00223122755113675,-0.026013963308237426,0.9996228268912718,0.06324558705091476,-0.03817101940512657,-0.06165529042482376,0.004456624388694763,-0.018380582332611084,-0.0005283355712890625
2025-09-18T12:34:28Z,0.004086811803089926,0.01828061590260666,-0.0536463015843446,-0.18940503895282745,-0.2762106955051422,-0.9422491192817688,0.009191676064311436,0.0017974456603232266,-0.026800089693710432,0.9995968650719416,0.06631749868392944,-0.04470544680953026,-0.07345695793628693,0.003381699323654175,-0.017970532178878784,0.0002453327178955078
2025-09-18T12:34:28Z,0.003271674740719606,0.01966987120030198,-0.05521426487677401,-0.18976803123950958,-0.27782100439071655,-0.9417024850845337,0.009876170032573331,0.001363659146830868,-0.0275861742744737,0.9995696229431142,0.06938941031694412,-0.051239874213933945,-0.08525862544775009,0.002303779125213623,-0.01756066083908081,0.0010164380073547363
2025-09-18T12:34:28Z,0.0023488464678183426,0.021062996753770182,-0.05700173282676539,-0.1901741921901703,-0.27947598695755005,-0.9411306977272034,0.01056048607613503,0.0008737704878938113,-0.028483047415539166,0.9995380182358896,0.06752106547355652,-0.05554552748799324,-0.09221085906028748,0.002086743712425232,-0.015227735042572021,0.0006191730499267578
2025-09-18T12:34:28Z,0.0013248862438737128,0.022404674820834317,-0.05891771120549006,-0.19064055383205414,-0.2811058759689331,-0.9405507445335388,0.011216751816500729,0.0003321607452202017,-0.029445324810263445,0.9995033315509761,0.061088986694812775,-0.06028567999601364,-0.09345877915620804,0.0012679249048233032,-0.013103872537612915,0.0002664327621459961
2025-09-18T12:34:28Z,0.0001424471837515579,0.023582173761871446,-0.06082211022117736,-0.19125716388225555,-0.2825777232646942,-0.9399843215942383,0.011787528273241966,-0.00028733018910771037,-0.030403417192775596,0.9994680771235424,0.05138863995671272,-0.06414911895990372,-0.08997773379087448,0.0007399767637252808,-0.010532408952713013,0.0007150173187255859
2025-09-18T12:34:28Z,-0.00106841747498505,0.0245581181268345,-0.06263117162840579,-0.19192363321781158,-0.2838406562805176,-0.9394678473472595,0.012256004562422736,-0.0009183600534294443,-0.03131466176351903,0.9994339224765342,0.037999048829078674,-0.06688761711120605,-0.08310557901859283,0.0002956390380859375,-0.008095592260360718,0.0012049078941345215
2025-09-18T12:34:28Z,-0.002360138427223124,0.025246172110289903,-0.06420516157402838,-0.19272597134113312,-0.28478720784187317,-0.9390169978141785,0.012578365793488944,-0.0015845201914214918,-0.03210937885080187,0.9994038508196754,0.023981450125575066,-0.06797473877668381,-0.07301541417837143,-0.00035324692726135254,-0.004894822835922241,0.001635909080505371
2025-09-18T12:34:28Z,-0.0036772328947272024,0.025605705378224014,-0.06552330919149574,-0.19361799955368042,-0.2853757441043854,-0.9386547207832336,0.012735392292770438,-0.0022568339601041713,-0.03277658420536495,0.9993789039037843,0.0064665451645851135,-0.06869576126337051,-0.0560697503387928,-8.22991132736206e-05,-0.0027850866317749023,0.0026274919509887695
2025-09-18T12:34:28Z,-0.005084992029956577,0.02557581202580964,-0.06646543580080591,-0.19469304382801056,-0.28552666306495667,-0.9383864402770996,0.012695985102795324,-0.002965767704775452,-0.033256274409727955,0.9993617217590446,-0.014593439176678658,-0.0716208964586258,-0.03594717010855675,-0.00030428171157836914,-0.0008926689624786377,0.0037322044372558594
2025-09-18T12:34:28Z,-0.006526542147740668,0.02505575446598011,-0.06704678033612421,-0.1958945095539093,-0.28514841198921204,-0.9382513761520386,0.012411079075349754,-0.003681061469986661,-0.03355516484079419,0.9993528975206927,-0.03820766508579254,-0.07083684951066971,-0.018967492505908012,0.0011577457189559937,-0.0008698999881744385,0.0027534961700439453
2025-09-18T12:34:28Z,-0.007923980303944771,0.02404299415951493,-0.06730773795397657,-0.19713950157165527,-0.2842462658882141,-0.9382643699645996,0.011881006609351168,-0.004363931468064962,-0.03369242620604469,0.9993519793748068,-0.06412513554096222,-0.06864465773105621,-0.004380230791866779,0.002446681261062622,-0.0010511279106140137,0.0016560554504394531
2025-09-18T12:34:28Z,-0.009359090432131808,0.022519458490386102,-0.06730706461235073,-0.19849003851413727,-0.28281402587890625,-0.9384124279022217,0.011095550682223355,-0.005055428487264481,-0.0336973411566845,0.9993576168387004,-0.08830661326646805,-0.0712260752916336,0.006866996176540852,0.0030811727046966553,-0.0003923475742340088,0.002532780170440674
2025-09-18T12:34:28Z,-0.01087797144805664,0.020541471053315486,-0.06710259757908257,-0.1999746859073639,-0.28091493248939514,-0.9386676549911499,0.010082183648309555,-0.005780132568816816,-0.033598572101873565,0.9993677361508684,-0.11087533831596375,-0.07939186692237854,0.01821991056203842,0.0029465407133102417,-0.0006795525550842285,0.004366099834442139
2025-09-18T12:34:28Z,-0.012544861867690427,0.01813492074679132,-0.06669926536476714,-0.20165300369262695,-0.27857354283332825,-0.9390063285827637,0.008852981973911288,-0.006570975120060844,-0.033398268810645684,0.9993812484348935,-0.12905779480934143,-0.09071076661348343,0.026582840830087662,0.002714484930038452,-0.001139223575592041,0.005606353282928467
2025-09-18T12:34:28Z,-0.014478303048394198,0.015368597571256146,-0.06613661392104228,-0.203626349568367,-0.2758612632751465,-0.9393811225891113,0.007440487352055635,-0.007488968478175667,-0.033116035142532314,0.9993957380445236,-0.1454503983259201,-0.10419970005750656,0.034202396869659424,0.002661481499671936,-0.0010045170783996582,0.0065604448318481445
2025-09-18T12:34:28Z,-0.016670594324971477,0.012303382711501769,-0.0654468742339912,-0.20587949454784393,-0.2728407084941864,-0.9397720694541931,0.00587544317660039,-0.008531841207136927,-0.03276709042062302,0.9994092986542492,-0.1590057611465454,-0.11562604457139969,0.042334362864494324,0.003574073314666748,-0.0020047128200531006,0.00577014684677124
2025-09-18T12:34:28Z,-0.019069689565941673,0.009022390080668071,-0.06462330196551727,-0.2083655297756195,-0.26958832144737244,-0.940162718296051,0.004200594966443146,-0.009675358350502393,-0.03234722259323352,0.9994210104424592,-0.16800923645496368,-0.12636123597621918,0.05049213021993637,0.003540337085723877,-0.0023286044597625732,0.005309343338012695
2025-09-18T12:34:28Z,-0.021683804448262844,0.005617275000779155,-0.06359261981773355,-0.21111121773719788,-0.2661760449409485,-0.9405223727226257,0.0024623829897860417,-0.010925451615293775,-0.031819395544944264,0.9994308251989817,-0.16947707533836365,-0.13477064669132233,0.06301327049732208,0.001545727252960205,-0.0006896555423736572,0.004331767559051514
2025-09-18T12:34:28Z,-0.02433382132279555,0.0022431647911347542,-0.06231984428760482,-0.21395637094974518,-0.2627435326576233,-0.9408445954322815,0.0007419056827958287,-0.012195637825212777,-0.03116619588621627,0.999439463465531,-0.16767245531082153,-0.13437041640281677,0.0757460743188858,0.0012099593877792358,-0.0012390613555908203,0.0007531642913818359
2025-09-18T12:34:28Z,-0.026803275143645937,-0.001081281601106017,-0.06077361944584733,-0.21670493483543396,-0.2593022584915161,-0.9411701560020447,-0.0009475009365809747,-0.013378624855497807,-0.03037216198937824,0.9994485703901229,-0.15990154445171356,-0.11756642162799835,0.09301331639289856,0.0037593096494674683,0.002143174409866333,-0.0065544843673706055
2025-09-18T12:34:28Z,-0.02891847016644286,-0.004291249197884656,-0.058787558823725605,-0.21923553943634033,-0.2558816075325012,-0.9415202736854553,-0.002569406727176148,-0.01438940093017196,-0.029355399395442745,0.9994620929174819,-0.1544838845729828,-0.0964910015463829,0.11687999963760376,0.004611805081367493,0.008802726864814758,-0.010728716850280762
2025-09-18T12:34:28Z,-0.030550351411534504,-0.007383436816667971,-0.05621910651943422,-0.22146230936050415,-0.2524568438529968,-0.9419235587120056,-0.004119123739878716,-0.015164698206176701,-0.028046016587192666,0.9994830219771458,-0.1480056345462799,-0.06951119005680084,0.1513853371143341,0.004278525710105896,0.014526158571243286,-0.012978196144104004
2025-09-18T12:34:28Z,-0.03163171664951364,-0.010341758196703486,-0.052945787832495934,-0.22335185110569,-0.24901878833770752,-0.9423924684524536,-0.005587017829103081,-0.01567259287661763,-0.02638439001539754,0.9995133182059355,-0.1377648413181305,-0.043791718780994415,0.18298496305942535,0.004419505596160889,0.01414574682712555,-0.012402474880218506
2025-09-18T12:34:28Z,-0.03217832314056153,-0.013043862348522025,-0.04910727970275511,-0.2248796969652176,-0.24570927023887634,-0.9428976774215698,-0.006914058181955923,-0.015923177957986822,-0.02444257953489686,0.9995504224681572,-0.12227930128574371,-0.023609256371855736,0.20886081457138062,0.003281146287918091,0.010570168495178223,-0.008500933647155762
2025-09-18T12:34:28Z,-0.03238896610251724,-0.015476772016906658,-0.04479989189718852,-0.22620640695095062,-0.24255840480327606,-0.9433960318565369,-0.008098051889671023,-0.016015928128842016,-0.022269185146225178,0.9995908721444701,-0.10240481048822403,-0.009739485569298267,0.22662168741226196,0.0007122009992599487,0.006871819496154785,-0.005018949508666992
2025-09-18T12:34:28Z,-0.032411306352220316,-0.017507852291362033,-0.04015955971961397,-0.22743378579616547,-0.23971791565418243,-0.9438269138336182,-0.009076258307116378,-0.01602531734538172,-0.01993319940983765,0.999631618640535,-0.08202849328517914,-0.004439293872565031,0.2390563040971756,-0.0018986165523529053,0.003279075026512146,-0.0020126700401306152
2025-09-18T12:34:28Z,-0.032407128617990145,-0.019142873784170487,-0.035364494235590425,-0.22866807878017426,-0.23721706867218018,-0.9441604614257812,-0.009855013862047653,-0.016030370559081252,-0.01752313811104819,0.999669291498119,-0.06194842606782913,-0.004583386238664389,0.2430763840675354,-0.0030188262462615967,-4.0978193283081055e-06,-0.0012065768241882324
2025-09-18T12:34:28Z,-0.03239779772462421,-0.020402444234474026,-0.030503466790872798,-0.22990669310092926,-0.23505385220050812,-0.9444006681442261,-0.010445549652914951,-0.016039908120812785,-0.015083129906945554,0.9997029137289816,-0.04633272811770439,-0.004371564835309982,0.24225249886512756,-0.002799108624458313,-0.0014450401067733765,-0.0018085837364196777
2025-09-18T12:34:28Z,-0.032400647972918556,-0.02135579160025025,-0.025722793618305914,-0.23112931847572327,-0.23319180309772491,-0.9445638060569763,-0.010883741988358238,-0.01606004553928063,-0.012685662576063258,0.9997312050007263,-0.033668920397758484,-0.007522722706198692,0.23696550726890564,-0.0035920143127441406,-0.0014538317918777466,-0.0019024014472961426
2025-09-18T12:34:28Z,-0.03238049255054218,-0.022089212729117794,-0.02097496344807047,-0.23231561481952667,-0.23153972625732422,-0.9446792006492615,-0.011212102253854753,-0.016071852437661932,-0.010306482854349984,0.9997547500333314,-0.022382060065865517,-0.0031611318700015545,0.24081379175186157,-0.00519968569278717,0.0012390464544296265,-0.002270817756652832
2025-09-18T12:34:28Z,-0.03233112684298907,-0.02256480765159881,-0.016153730631340978,-0.23348622024059296,-0.23011237382888794,-0.9447393417358398,-0.011410875288652509,-0.016072193358921533,-0.007892840348048526,0.9997744584175622,-0.010832819156348705,0.001438363455235958,0.24347001314163208,-0.005377769470214844,0.0023275166749954224,-0.003079652786254883
2025-09-18T12:34:28Z,-0.03193120232744504,-0.022589187387967346,-0.011274268944331778,-0.2343321293592453,-0.22909677028656006,-0.9447767734527588,-0.01138272581611521,-0.015899992882468725,-0.005455716463085639,0.9997938282919067,0.002053959295153618,0.01432114839553833,0.2417820394039154,-0.003921136260032654,0.0006628334522247314,-0.0034826993942260742
2025-09-18T12:34:28Z,-0.031531184303138934,-0.02261163832344768,-0.00639476315276033,-0.2351730912923813,-0.2280770242214203,-0.9448145031929016,-0.011354519327283123,-0.015727708035858944,-0.0030185437492698465,0.9998072323203061,0.01494073960930109,0.027203934267163277,0.24009406566619873,-0.002469390630722046,-0.0010059773921966553,-0.0038854479789733887
2025-09-18T12:34:28Z,-0.030900287646807672,-0.022347775863742134,-0.0015704107649778952,-0.23577530682086945,-0.22733519971370697,-0.9448432326316833,-0.01118444926144411,-0.01543978816098456,-0.0006124349264603766,0.9998180041139335,0.025973156094551086,0.030928004533052444,0.237959086894989,-0.00447431206703186,0.0010091960430145264,-0.0020576119422912598
2025-09-18T12:34:29Z,-0.030135008684367227,-0.021871241577618578,0.0032330828312039208,-0.2362392097711563,-0.2267942726612091,-0.9448573589324951,-0.010909792859031478,-0.015083689818422633,0.001781023439394629,0.9998250838413508,0.033835966140031815,0.034882351756095886,0.2387107014656067,-0.005848035216331482,0.002488955855369568,-0.0009124279022216797
2025-09-18T12:34:29Z,-0.029309864597460846,-0.021240177828016675,0.008076416452876272,-0.23665066063404083,-0.22638626396656036,-0.9448522329330444,-0.01055948888747669,-0.014696343337934386,0.004193163108790109,0.9998273918555742,0.03985180705785751,0.03829219564795494,0.24155136942863464,-0.005316615104675293,0.0027977675199508667,-0.0016409754753112793
2025-09-18T12:34:29Z,-0.02837507099652875,-0.020475607880822914,0.012941341577017939,-0.23695826530456543,-0.2260948121547699,-0.9448449015617371,-0.010144586512788451,-0.014252256797660581,0.006614874378827919,0.9998250482516294,0.04799840599298477,0.04504908248782158,0.24124236404895782,-0.00451149046421051,0.0008422881364822388,-0.002902209758758545
2025-09-18T12:34:29Z,-0.02729846069328292,-0.01953863202548871,0.017810352601984644,-0.23712705075740814,-0.22596046328544617,-0.9448347091674805,-0.009646326454562114,-0.013734602047483873,0.009037137054699792,0.9998182212634453,0.058639779686927795,0.05674130469560623,0.2372862696647644,-0.00298386812210083,-0.0023843050003051758,-0.005053102970123291
2025-09-18T12:34:29Z,-0.025994792234577988,-0.018383276097175924,0.022606504047202478,-0.2370576113462448,-0.22604316473007202,-0.9448323249816895,-0.009043246598903657,-0.013099535119965013,0.01142103497921444,0.9998079780890823,0.06885772943496704,0.06669389456510544,0.23303614556789398,-0.0020097941160202026,-0.0047637224197387695,-0.005988895893096924
2025-09-18T12:34:29Z,-0.024487321999373753,-0.017024574293224723,0.027247082304159377,-0.23675236105918884,-0.22634641826152802,-0.9448362588882446,-0.008343970491836748,-0.012357730265215468,0.01372581430913179,0.9997945288880178,0.0782308578491211,0.07527349144220352,0.22487877309322357,-0.001057058572769165,-0.005285441875457764,-0.00490647554397583
2025-09-18T12:34:29Z,-0.02286743853455796,-0.015544924799401448,0.0317700505741313,-0.23630781471729279,-0.22678415477275848,-0.9448426365852356,-0.007589288106507523,-0.011555134206171873,0.015971694150934586,0.9997768168165978,0.08162514120340347,0.08121086657047272,0.2178163081407547,-0.0008601248264312744,-0.004677429795265198,-0.0044768452644348145
2025-09-18T12:34:29Z,-0.021173187687450273,-0.013988672399565165,0.036135647106263276,-0.23575101792812347,-0.22732307016849518,-0.9448521733283997,-0.006801488005968383,-0.010710767354140808,0.01813941937703952,0.9997549040882883,0.0835481807589531,0.08313629031181335,0.21087627112865448,-0.0009891539812088013,-0.004318937659263611,-0.0028302669525146484
2025-09-18T12:34:29Z,-0.01948870395891909,-0.012409618068792493,0.040336733256316065,-0.2351604700088501,-0.22791410982608795,-0.9448570013046265,-0.006006705648720193,-0.009867154663493978,0.02022610296288783,0.9997286441676468,0.08128516376018524,0.08202028274536133,0.2027738094329834,-0.0012505054473876953,-0.00562836229801178,-0.0005289912223815918
2025-09-18T12:34:29Z,-0.017832510361661995,-0.010858502806836309,0.04433366445091777,-0.23454487323760986,-0.22851821780204773,-0.9448640942573547,-0.005230052088012657,-0.009034149945290382,0.022212206643117616,0.9996987065198971,0.0792892724275589,0.08258529007434845,0.19356980919837952,-0.0009487271308898926,-0.006771877408027649,0.0002741813659667969
2025-09-18T12:34:29Z,-0.016231808813589155,-0.009334389940106253,0.04814393063987754,-0.23393456637859344,-0.22913315892219543,-0.9448664784431458,-0.004470329726971456,-0.008225709572150358,0.024106453619660913,0.9996655237748,0.07845640927553177,0.07586883008480072,0.18143810331821442,-0.0007756799459457397,-0.0080946683883667,0.00218123197555542
2025-09-18T12:34:29Z,-0.014781492907819577,-0.007787781895200087,0.05167855860036552,-0.23339833319187164,-0.2298259139060974,-0.9448308348655701,-0.0037015278250327526,-0.0074887571571871136,0.025864271324816977,0.999630562073091,0.0774211511015892,0.06597921252250671,0.16631454229354858,-0.0010380297899246216,-0.00937555730342865,0.00380021333694458
2025-09-18T12:34:29Z,-0.013555778344758329,-0.006273903238272182,0.05489230658394103,-0.2329963594675064,-0.2305547147989273,-0.9447524547576904,-0.0029496918167046964,-0.006861335871439258,0.02746319704554448,0.9995948743084362,0.0743645504117012,0.056786663830280304,0.1523568034172058,-0.0016689449548721313,-0.008257418870925903,0.004395544528961182
