timestamp,attitude_roll,attitude_pitch,attitude_yaw,gravity_x,gravity_y,gravity_z,quaternion_x,quaternion_y,quaternion_z,quaternion_w,rotation_rate_x,rotation_rate_y,rotation_rate_z,user_acceleration_x,user_acceleration_y,user_acceleration_z
2025-09-20T02:19:29Z,-0.0021915152009202806,0.008427029270053496,0.009027043064281764,-0.19028031826019287,-0.23207683861255646,-0.9539044499397278,0.0042184023662262295,-0.0010767188321387372,0.00450884648472084,0.9999803618938921,0.0026628084015101194,0.0008514663204550743,-0.0007480222266167402,0.009560510516166687,-0.013491347432136536,-0.016418874263763428
2025-09-20T02:19:29Z,-0.0020830189876719497,0.00843456053759028,0.009013114505311993,-0.1901737004518509,-0.232086643576622,-0.9539233446121216,0.004221916181981836,-0.00102248417495312,0.004502107159856541,0.9999804392508048,-0.0046926699578762054,0.007790363859385252,-0.001339806243777275,0.010800212621688843,-0.012845173478126526,-0.01919776201248169
2025-09-20T02:19:29Z,-0.0018916590715484182,0.008269487759191257,0.008983899084025335,-0.18998467922210693,-0.23193460702896118,-0.9539979696273804,0.004138937067896878,-0.00092723882312792,0.0044879832812133175,0.9999809416881716,-0.010898485779762268,0.010721319355070591,-0.00021006842143833637,0.010560736060142517,-0.012577846646308899,-0.017822623252868652
2025-09-20T02:19:29Z,-0.0016057345005952915,0.008049021768794573,0.00899682271699722,-0.18971489369869232,-0.23172177374362946,-0.954103410243988,0.004028069450519095,-0.0007847487234555522,0.004495127046964459,0.9999815105967931,-0.011524238623678684,0.0072552962228655815,0.003978747874498367,0.010079458355903625,-0.012570366263389587,-0.014282047748565674
2025-09-20T02:19:29Z,-0.0014232020025965113,0.007853373934841161,0.009081121857466137,-0.18955963850021362,-0.23151914775371552,-0.9541834592819214,0.003929866664614849,-0.0006937589081829334,0.004537715236920493,0.9999816838348822,-0.009605199098587036,0.005993358325213194,0.00595027394592762,0.010281294584274292,-0.013697013258934021,-0.01282811164855957
2025-09-20T02:19:29Z,-0.0012911087758384631,0.007739831267384199,0.009175957289094075,-0.18945486843585968,-0.23139290511608124,-0.9542348384857178,0.0038728265034432834,-0.0006277877819635116,0.004585429393475854,0.9999817107835649,-0.0048492467030882835,0.004278420936316252,0.004318760242313147,0.010322824120521545,-0.013893097639083862,-0.011762499809265137
2025-09-20T02:19:29Z,-0.0011834116219850467,0.007666000292553933,0.009275923420589558,-0.18937452137470245,-0.2313036322593689,-0.954272449016571,0.0038356933814520603,-0.0005739179017308041,0.00463564250948089,0.99998167227837,-0.0035751680843532085,-0.0008253436535596848,0.004645637236535549,0.009090721607208252,-0.010935500264167786,-0.010832726955413818
2025-09-20T02:19:29Z,-0.001209027464573707,0.007573584446130791,0.00941336552783946,-0.18942978978157043,-0.2311895489692688,-0.9542891383171082,0.0037895859097708804,-0.0005866795690693297,0.004704341828239823,0.9999815424207907,-0.005504762753844261,-0.00392206059768796,0.009269261732697487,0.008315995335578918,-0.007305309176445007,-0.010403633117675781
2025-09-20T02:19:30Z,-0.0013047506407390923,0.007446924315063728,0.009648318948913985,-0.18957377970218658,-0.23102441430091858,-0.9543005228042603,0.0037265566593014114,-0.0006344007158706563,0.004821677358671712,0.9999812048346145,-0.0064322855323553085,-0.005410599056631327,0.01149175874888897,0.008168637752532959,-0.006959050893783569,-0.011657536029815674
2025-09-20T02:19:30Z,-0.0013844322811236744,0.007309842395522885,0.009905170265157059,-0.18970736861228943,-0.23084518313407898,-0.9543173313140869,0.0036582957138756394,-0.0006741018055472924,0.004950000838530437,0.9999807940867725,-0.0077535235323011875,-0.0038474227767437696,0.013080545701086521,0.007885292172431946,-0.007054969668388367,-0.01346045732498169
2025-09-20T02:19:30Z,-0.0014338898005103469,0.007122860854987008,0.010211844516771516,-0.18982326984405518,-0.23060891032218933,-0.9543514251708984,0.003565036344095489,-0.0006987467113091431,0.005103313295921514,0.9999803345363825,-0.00756052928045392,0.00027947244234383106,0.016419945284724236,0.007480055093765259,-0.007012724876403809,-0.015161216259002686
2025-09-20T02:19:30Z,-0.0013417550039242748,0.006972733962744473,0.010582631555852198,-0.1898183673620224,-0.23039570450782776,-0.9544038772583008,0.0034898601750497464,-0.0006524166524825646,0.005288918942253608,0.9999796939024989,-0.005700915586203337,0.007814610376954079,0.01865755394101143,0.007995367050170898,-0.008474305272102356,-0.017293572425842285
2025-09-20T02:19:30Z,-0.0010814311795616365,0.006852679567025351,0.010933679853268388,-0.18964847922325134,-0.2302149087190628,-0.954481303691864,0.003429237336366736,-0.0005219731889397426,0.005464927138841526,0.9999790554836414,-0.004072083625942469,0.012163427658379078,0.01769508793950081,0.007714122533798218,-0.009911149740219116,-0.016972243785858154
2025-09-20T02:19:30Z,-0.0008021872295035961,0.006763416944782524,0.011280844173545882,-0.18945960700511932,-0.23006421327590942,-0.9545551538467407,0.003383910135581425,-0.00038201079216794047,0.005639002886129504,0.9999783430391758,-0.0026411213912069798,0.012850754894316196,0.014380080625414848,0.008391901850700378,-0.011114031076431274,-0.016197800636291504
2025-09-20T02:19:30Z,-0.0005080780358324312,0.006714406043681092,0.011545930131364306,-0.18923813104629517,-0.2299673855304718,-0.9546223878860474,0.0033586070845819348,-0.00023465247223650306,0.00577204722682956,0.9999777100643132,-0.0013043783837929368,0.012294484302401543,0.01374974474310875,0.008670806884765625,-0.01250465214252472,-0.014336943626403809
2025-09-20T02:19:30Z,-0.000319004302834402,0.006694754093948306,0.011802680039176162,-0.1891150176525116,-0.22990016639232635,-0.9546629786491394,0.003348253580633374,-0.00013974461691814425,0.005900738460163669,0.9999770202814933,0.002753725741058588,0.0035431580618023872,0.01208008173853159,0.008260563015937805,-0.012482106685638428,-0.011325955390930176
2025-09-20T02:19:30Z,-0.00032591044172928797,0.006767145560558149,0.012026655719439474,-0.1891716569662094,-0.2299269735813141,-0.9546453356742859,0.003384484918708614,-0.00014260496805430217,0.006012705620819518,0.999976208675541,0.004502987489104271,-0.004396774806082249,0.013455978594720364,0.008166864514350891,-0.011751607060432434,-0.009854316711425781
2025-09-20T02:19:30Z,-0.0005480483427405947,0.006914590395903113,0.012379816390579397,-0.18946261703968048,-0.2300010472536087,-0.9545697569847107,0.003458917940357697,-0.0002526171105338064,0.006188883773760184,0.9999748839998275,0.005644000601023436,-0.009579241275787354,0.017521703615784645,0.008552119135856628,-0.010564863681793213,-0.010253608226776123
2025-09-20T02:19:30Z,-0.0007702770229297658,0.007061921574203232,0.012733000643850084,-0.18975356221199036,-0.2300748974084854,-0.9544941782951355,0.0035333337805360976,-0.0003626486509259435,0.006365057632662819,0.9999733785693665,0.0067850137129426,-0.014761707745492458,0.021587427705526352,0.008937358856201172,-0.009378299117088318,-0.01065295934677124
2025-09-20T02:19:30Z,-0.001002357239900422,0.007230420713755858,0.01320046617888124,-0.19007940590381622,-0.2301473617553711,-0.9544118642807007,0.0036184314428550886,-0.00047730344136630607,0.006598329948484395,0.9999714848200608,0.006407726556062698,-0.012025857344269753,0.025608304888010025,0.009881049394607544,-0.009493902325630188,-0.013680338859558105
2025-09-20T02:19:30Z,-0.0011036251472018247,0.007353076255048836,0.013730949696646497,-0.19029441475868225,-0.2301640808582306,-0.9543649554252625,0.0036802313949545833,-0.0005265549364399106,0.006863345424046661,0.9999694396193077,0.005286441650241613,-0.0031837420538067818,0.027339505031704903,0.01044018566608429,-0.010260730981826782,-0.01585012674331665
2025-09-20T02:19:30Z,-0.0011210840448978444,0.007480215274553518,0.014306636912893144,-0.19043947756290436,-0.23017647862434387,-0.9543330669403076,0.0037440126375786237,-0.0005337698865322378,0.007151110484687309,0.9999671925431941,0.0027971358504146338,0.0012854775413870811,0.027552956715226173,0.009289100766181946,-0.0104895681142807,-0.01576864719390869
2025-09-20T02:19:30Z,-0.0010587074421452604,0.007494970945601225,0.014907337076973793,-0.19051389396190643,-0.23007676005363464,-0.954342246055603,0.0037513179786198467,-0.0005014031282981207,0.007451563124434456,0.999964984510386,-0.0013451825361698866,0.006733162794262171,0.02833021990954876,0.009399428963661194,-0.010305702686309814,-0.015909254550933838
2025-09-20T02:19:30Z,-0.0008451744968847357,0.007446897496945635,0.015488588783080872,-0.19043968617916107,-0.22992072999477386,-0.9543946981430054,0.00372660073300115,-0.00039373650780636445,0.007742589156932126,0.9999630067191005,-0.004270409233868122,0.009442176669836044,0.028393210843205452,0.00962403416633606,-0.011037170886993408,-0.015165209770202637
2025-09-20T02:19:30Z,-0.0006456007079207226,0.007359582161505111,0.016050819783451756,-0.1903744488954544,-0.2297307252883911,-0.9544534087181091,0.0036822547070688803,-0.00029325632520237033,0.008024081333361303,0.9999609663111407,-0.004422509577125311,0.009119442664086819,0.027227958664298058,0.00908970832824707,-0.012860804796218872,-0.013496458530426025
2025-09-20T02:19:30Z,-0.00045319788472347126,0.007326097163164627,0.016579354077402228,-0.19030848145484924,-0.22959841787815094,-0.9544984102249146,0.003664793034648732,-0.0001962245686114823,0.00828869670827361,0.9999588587818367,-0.0013278031256049871,0.00944533385336399,0.023805437609553337,0.009724974632263184,-0.014598876237869263,-0.012459099292755127
2025-09-20T02:19:30Z,-0.00036075131606733466,0.007330925486616903,0.017061945344248954,-0.19032761454582214,-0.2295113503932953,-0.9545155167579651,0.0036668602525162445,-0.00014909837867970236,0.00853015155783842,0.99995677250359,0.0008621183224022388,0.0005111955106258392,0.022286411374807358,0.007928222417831421,-0.014119192957878113,-0.00989079475402832
2025-09-20T02:19:30Z,-0.00035555217375000925,0.007396523374499481,0.01754424639366414,-0.19042997062206268,-0.22948233783245087,-0.9545021057128906,0.0036996705460186534,-0.0001453269179553428,0.008771293591957871,0.9999546244173897,0.0013911993009969592,0.002139473333954811,0.026178279891610146,0.007239282131195068,-0.01258648931980133,-0.012116789817810059
2025-09-20T02:19:30Z,-0.00016406914864063084,0.0074675617396301455,0.018123076780790868,-0.1903758943080902,-0.2294400930404663,-0.9545230269432068,0.0037343624532737004,-4.819737637071667e-05,0.009061045433677356,0.9999519150044729,0.003925320226699114,0.016119208186864853,0.027364464476704597,0.010126352310180664,-0.014304965734481812,-0.01763671636581421
2025-09-20T02:19:30Z,0.0003764849754690642,0.007597373909268105,0.018694673817554772,-0.1899869590997696,-0.22945524752140045,-0.9545968770980835,0.0037967523845233017,0.00022373991716807302,0.009347848498705746,0.9999490459111692,0.00566478818655014,0.03231816366314888,0.027476312592625618,0.01145164668560028,-0.013644859194755554,-0.019397437572479248
2025-09-20T02:19:30Z,0.001078709239169375,0.007754614818347687,0.019262954494472708,-0.18944284319877625,-0.22949713468551636,-0.9546949863433838,0.0038719226888164512,0.000576669054533621,0.009633345827336316,0.9999459204965911,0.004443768411874771,0.03313340246677399,0.030683331191539764,0.009829238057136536,-0.009858980774879456,-0.0165594220161438
2025-09-20T02:19:30Z,0.001637381696229055,0.007848702476256885,0.019938618134352624,-0.18905949592590332,-0.22945819795131683,-0.9547803401947021,0.003915983397106709,0.0008577661126279516,0.009972276853209144,0.9999422031757552,0.0019406438805162907,0.029016785323619843,0.036170195788145065,0.008729934692382812,-0.00619526207447052,-0.014934003353118896
2025-09-20T02:19:30Z,0.0021970453280804737,0.00792059832944991,0.02073644232134085,-0.18870216608047485,-0.22937466204166412,-0.9548710584640503,0.003948684310632696,0.0011395152301895235,0.010372298548046905,0.9999377142527619,0.001488021109253168,0.02432067133486271,0.045901477336883545,0.008883953094482422,-0.004210144281387329,-0.01436614990234375
2025-09-20T02:19:30Z,0.0027057924929858265,0.008069614269953755,0.021830739009806043,-0.18845903873443604,-0.22930796444416046,-0.9549350738525391,0.004019785443903632,0.0013968446983851363,0.010920512947751777,0.9999312501579651,0.012780839577317238,0.02713555097579956,0.06653781235218048,0.009162098169326782,-0.001818343997001648,-0.014015674591064453
2025-09-20T02:19:30Z,0.003373825854512225,0.008512495226467742,0.023505945522733454,-0.18819235265254974,-0.2294103056192398,-0.9549630880355835,0.004236109414255669,0.0017368026444123889,0.011759759143291552,0.9999203078366093,0.029903322458267212,0.03741465508937836,0.10023532807826996,0.009438589215278625,0.0008645057678222656,-0.01534944772720337
2025-09-20T02:19:30Z,0.0042315530572404215,0.009292874494630609,0.0259248050236757,-0.1879086196422577,-0.22969134151935577,-0.9549514055252075,0.004618595554813087,0.0021758014360875066,0.01297170121264043,0.9999027779922641,0.04504704102873802,0.050257548689842224,0.14005903899669647,0.009330376982688904,0.003292396664619446,-0.016405463218688965
2025-09-20T02:19:30Z,0.005359893152172912,0.01029411056740368,0.02912512706911085,-0.18753787875175476,-0.23003116250038147,-0.954942524433136,0.005107443574191171,0.0027545748977621386,0.01457559651812525,0.9998768920777216,0.05295629799365997,0.06101062148809433,0.17596827447414398,0.008791998028755188,0.003271058201789856,-0.015879392623901367
2025-09-20T02:19:30Z,0.006582472437801879,0.011414836819970067,0.0329895396004304,-0.18722137808799744,-0.23035404086112976,-0.9549267888069153,0.0056522954074825485,0.003384866242746594,0.016512445748026506,0.9998419471207305,0.055355921387672424,0.06668680161237717,0.20776064693927765,0.007834509015083313,0.0018536001443862915,-0.01588273048400879
2025-09-20T02:19:30Z,0.007983422866451472,0.012597206324009399,0.03771207472943498,-0.1869196742773056,-0.23056529462337494,-0.9549348950386047,0.006222129767110841,0.004109669864189194,0.018879532740484296,0.9997939873115049,0.0587751567363739,0.06796860694885254,0.2193748652935028,0.007741466164588928,-0.0020204931497573853,-0.014584898948669434
2025-09-20T02:19:30Z,0.009378791930914487,0.013786201965853062,0.04243301129807959,-0.18661893904209137,-0.23077797889709473,-0.9549423456192017,0.0067919367976377945,0.004834445728358259,0.021246493319541527,0.9997395174171272,0.06219439208507538,0.06925041228532791,0.23098908364772797,0.007649362087249756,-0.00589318573474884,-0.013287782669067383
2025-09-20T02:19:30Z,0.010768555569085868,0.014981773052848184,0.04715236540187295,-0.18631920218467712,-0.23099210858345032,-0.954949140548706,0.0073617014516727105,0.005559190417172396,0.02361331698241512,0.9996785969133457,0.06561362743377686,0.07053221017122269,0.24260330200195312,0.007558271288871765,-0.009764432907104492,-0.011991322040557861
2025-09-20T02:19:30Z,0.012149097126732494,0.016373271279595748,0.052022865697085696,-0.18605738878250122,-0.2313578873872757,-0.9549115896224976,0.008025640164042993,0.0062851685740393645,0.026056860513242974,0.999608496709434,0.072316475212574,0.07201701402664185,0.2463047057390213,0.00927203893661499,-0.013232648372650146,-0.012475669384002686
2025-09-20T02:19:30Z,0.013560946982198013,0.01793550848924169,0.056912065249593774,-0.18576598167419434,-0.23187701404094696,-0.9548424482345581,0.008770887378351475,0.00703254696455857,0.028511174061477854,0.999530253747048,0.07725799828767776,0.07204999774694443,0.24141335487365723,0.010225221514701843,-0.01564447581768036,-0.011860191822052002
2025-09-20T02:19:30Z,0.014905019972327826,0.01954379357723245,0.06165800690172781,-0.18550463020801544,-0.23246295750141144,-0.9547507762908936,0.009537122564226909,0.007749740907074363,0.03089458061530411,0.9994471248922571,0.07590208947658539,0.06922705471515656,0.2308923304080963,0.010490864515304565,-0.01711513102054596,-0.011242032051086426
2025-09-20T02:19:30Z,0.016129513622967565,0.021066741559528153,0.06611158108377035,-0.18529097735881805,-0.23302097618579865,-0.9546562433242798,0.010260558609727213,0.008407924166143124,0.033131762443791096,0.9993629693364394,0.06723437458276749,0.059765756130218506,0.21476295590400696,0.009818106889724731,-0.01733960211277008,-0.010006189346313477
2025-09-20T02:19:30Z,0.017098725155579367,0.02237771907146155,0.07026443329115126,-0.18525291979312897,-0.23343327641487122,-0.9545628428459167,0.01088103929127542,0.00893643400153772,0.035217102734506636,0.9992805031952812,0.055146463215351105,0.04804842546582222,0.19687484204769135,0.009456247091293335,-0.017069771885871887,-0.009063780307769775
2025-09-20T02:19:30Z,0.01793607455013305,0.023470427514734545,0.07404666609438824,-0.1852584183216095,-0.23370899260044098,-0.9544943571090698,0.011394507307292537,0.009395504186637574,0.03711600334745925,0.9992018525491894,0.04296159744262695,0.03817124664783478,0.17868921160697937,0.010433956980705261,-0.01785266399383545,-0.009103119373321533
2025-09-20T02:19:30Z,0.018538039691145706,0.02436888051480717,0.07740069235701932,-0.18539494276046753,-0.23388366401195526,-0.954425036907196,0.011815899542025776,0.009732651658521552,0.03879900082767088,0.9991297871188172,0.03629457205533981,0.02780390903353691,0.15646319091320038,0.011065393686294556,-0.020551607012748718,-0.009101152420043945
2025-09-20T02:19:30Z,0.01889058390426152,0.025162344284044874,0.08031123967067626,-0.1856737732887268,-0.23404629528522491,-0.9543309807777405,0.012190994480627724,0.009941824454787335,0.04025859609157673,0.999065391552648,0.0332471989095211,0.016309326514601707,0.13195955753326416,0.010895729064941406,-0.022049441933631897,-0.009645581245422363
2025-09-20T02:19:30Z,0.01910794393836582,0.02588401398622109,0.08273725913957782,-0.1859782189130783,-0.23423773050308228,-0.954224705696106,0.01253490123010466,0.010080055236488574,0.04147502000871915,0.9990099775561577,0.02871772088110447,0.00833944883197546,0.11116652190685272,0.010399788618087769,-0.020640939474105835,-0.011187255382537842
2025-09-20T02:19:30Z,0.01919045150055227,0.026489463988804095,0.0847956859091918,-0.1863328516483307,-0.23439259827136993,-0.954117476940155,0.012825181371220776,0.010146953490504717,0.042506442904964366,0.9989622622570634,0.02319265902042389,0.0011730799451470375,0.09272011369466782,0.0106324702501297,-0.01972164213657379,-0.011326730251312256
2025-09-20T02:19:30Z,0.018865345287916623,0.02697717938797497,0.08624584164242138,-0.1869480460882187,-0.23455925285816193,-0.9539561867713928,0.013068447585884636,0.01000435107897089,0.04323083059003915,0.9989294571227865,0.023055806756019592,-0.006710577756166458,0.08218317478895187,0.009751111268997192,-0.018298029899597168,-0.011240780353546143
2025-09-20T02:19:30Z,0.01853954747335472,0.027464431783900338,0.08769617050792904,-0.1875634342432022,-0.23472493886947632,-0.9537945985794067,0.013311709861583441,0.0098617526913487,0.043955189873822686,0.9988960491394685,0.022918954491615295,-0.01459423452615738,0.07164623588323593,0.008869960904121399,-0.016875341534614563,-0.011155009269714355
2025-09-20T02:19:30Z,0.018213029189373356,0.02795120626041486,0.08914668348229952,-0.18817901611328125,-0.2348896563053131,-0.9536327719688416,0.013554961716517579,0.009719143508938599,0.04467952525837036,0.9988620388710283,0.02278210036456585,-0.0224778912961483,0.06110929697751999,0.007988974452018738,-0.01545366644859314,-0.011069655418395996
2025-09-20T02:19:30Z,0.017758478742913444,0.028462702289920483,0.09032342749194888,-0.18885935842990875,-0.23513369262218475,-0.9534381628036499,0.01381498182439381,0.009511618754479085,0.04526624464394881,0.9988340633960164,0.02490716427564621,-0.027581004425883293,0.052244968712329865,0.007143422961235046,-0.015118256211280823,-0.011581718921661377
2025-09-20T02:19:30Z,0.017211449109128325,0.029055742740149524,0.09131455693109591,-0.1895892173051834,-0.23549304902553558,-0.9532045722007751,0.014118953436597378,0.009258768516732999,0.04575980040064024,0.9988097178226844,0.029404232278466225,-0.03083900362253189,0.043745238333940506,0.006770074367523193,-0.014970213174819946,-0.011807739734649658
2025-09-20T02:19:30Z,0.01656690670819492,0.029727488507415984,0.09214292155888962,-0.19037814438343048,-0.23596042394638062,-0.9529317021369934,0.01446546737537653,0.008958158947411055,0.04617148499777654,0.998788579302256,0.03275744616985321,-0.03166026994585991,0.03962349146604538,0.006316259503364563,-0.01481020450592041,-0.012806057929992676
2025-09-20T02:19:30Z,0.01595364532167512,0.03047048986215182,0.09288846372373077,-0.1911199539899826,-0.23651227355003357,-0.9526463747024536,0.014847446405097072,0.008674497053998292,0.04654206477622624,0.9987682799470148,0.0364660769701004,-0.025808408856391907,0.03373293951153755,0.007383257150650024,-0.014891892671585083,-0.013668715953826904
2025-09-20T02:19:31Z,0.015485617077071443,0.0312669440965058,0.09347549306000376,-0.19169041514396667,-0.23714736104011536,-0.9523738622665405,0.015253594162663777,0.008463686587551802,0.046834531961525046,0.9987503233539398,0.037727996706962585,-0.022054025903344154,0.025359980762004852,0.007163241505622864,-0.015235915780067444,-0.013858199119567871
2025-09-20T02:19:31Z,0.014995613481218324,0.0320497888379604,0.09390030496078601,-0.19224786758422852,-0.23780277371406555,-0.95209801197052,0.015654255364223556,0.0082405542658849,0.04704557361166527,0.9987360728023926,0.03806440532207489,-0.022490672767162323,0.017516829073429108,0.00752653181552887,-0.015090644359588623,-0.013386785984039307
2025-09-20T02:19:31Z,0.014573204108516946,0.03284005823014309,0.09415958824143485,-0.19270645081996918,-0.2384992092847824,-0.951831042766571,0.01605778740955953,0.008050193776617314,0.047174319715381746,0.9987251066185698,0.038155168294906616,-0.017649218440055847,0.009260258637368679,0.008145436644554138,-0.01500190794467926,-0.014670789241790771
2025-09-20T02:19:31Z,0.014167299249204242,0.033709950123512376,0.09421507947212988,-0.1931072324514389,-0.23931312561035156,-0.9515454769134521,0.016501537974984742,0.007868372606858449,0.047201505409486554,0.9987180597325107,0.046454284340143204,-0.020253494381904602,-0.0008633062243461609,0.0075685977935791016,-0.016925305128097534,-0.013481438159942627
2025-09-20T02:19:31Z,0.01374055600060519,0.03479134017408996,0.09400157013761612,-0.19347262382507324,-0.24038299918174744,-0.9512015581130981,0.01705243508822121,0.007678847412081347,0.047094639898943226,0.9987153308493316,0.06015702337026596,-0.02293984591960907,-0.016100095584988594,0.007623806595802307,-0.019392043352127075,-0.012897014617919922
2025-09-20T02:19:31Z,0.013262050008026157,0.036189480349268575,0.09355282541155453,-0.19383926689624786,-0.2418014407157898,-0.9507672786712646,0.01776355469680733,0.007468672620056206,0.046870521870375575,0.9987150903839834,0.07297801971435547,-0.025840187445282936,-0.023084303364157677,0.007511436939239502,-0.018164515495300293,-0.0110054612159729
2025-09-20T02:19:31Z,0.012677569652423323,0.03784062190749972,0.09296118185737409,-0.19427739083766937,-0.2434885948896408,-0.9502471089363098,0.018603899064025486,0.00720980333002337,0.04657439986210641,0.9987155691237564,0.0870792344212532,-0.03281616047024727,-0.030141588300466537,0.005718618631362915,-0.01777714490890503,-0.01031583547592163
2025-09-20T02:19:31Z,0.012207112602565606,0.039728658044132684,0.0922800039061377,-0.194588765501976,-0.24541784822940826,-0.9496869444847107,0.019560052119135158,0.0070119571950031274,0.04623477758679739,0.9987144974332942,0.09730597585439682,-0.01786707527935505,-0.03737254813313484,0.008854001760482788,-0.019000396132469177,-0.01582854986190796
2025-09-20T02:19:31Z,0.011994575665068605,0.041831855815733454,0.09131384161963904,-0.19459626078605652,-0.24760845303535461,-0.9491166472434998,0.0206185705148009,0.0069442297633462635,0.04575555282652946,0.9987157553012812,0.10757944732904434,-0.004142743535339832,-0.05586849898099899,0.010993942618370056,-0.022413313388824463,-0.01842474937438965
2025-09-20T02:19:31Z,0.01204917856490742,0.04410732482412355,0.08992243366238556,-0.19426210224628448,-0.25004813075065613,-0.9485452771186829,0.02175847485716201,0.007008127816875039,0.045067041924380956,0.9987224252358486,0.11606787890195847,0.0027633393183350563,-0.07659495621919632,0.010847121477127075,-0.02189415693283081,-0.016948461532592773
2025-09-20T02:19:31Z,0.012127156981904209,0.04654815661082996,0.08811740742154582,-0.19381986558437347,-0.2527272701263428,-0.9479255080223083,0.022981971846507885,0.007080998668686813,0.044172684295191576,0.9987344807985811,0.12380420416593552,-0.006896602921187878,-0.09768179059028625,0.009029150009155273,-0.021267235279083252,-0.012300670146942139
2025-09-20T02:19:31Z,0.011879995069709801,0.04911608317771136,0.08580906171570342,-0.19358043372631073,-0.2556271553039551,-0.9471966028213501,0.024277848062078184,0.006985910982153195,0.043023406946334455,0.9987545477356472,0.1340472549200058,-0.026083290576934814,-0.1255456954240799,0.008017122745513916,-0.021011412143707275,-0.00955212116241455
2025-09-20T02:19:31Z,0.01138609622643122,0.051907430436210704,0.08292403305877723,-0.19345317780971527,-0.2588527798652649,-0.9463462233543396,0.025692181539859638,0.00676185579936737,0.04158311805615076,0.9987817824150883,0.14690503478050232,-0.03838999569416046,-0.15565843880176544,0.008396938443183899,-0.020079493522644043,-0.010600686073303223
2025-09-20T02:19:31Z,0.01069893148508608,0.05499156698444917,0.07944948201926079,-0.19338326156139374,-0.26247042417526245,-0.9453635215759277,0.027257867507467944,0.006435021858543137,0.039845666574016315,0.9988132651173307,0.1620972603559494,-0.050699301064014435,-0.18059098720550537,0.008063271641731262,-0.016869693994522095,-0.009906351566314697
2025-09-20T02:19:31Z,0.009863836994321732,0.05832079205526799,0.07562063412842178,-0.1933753937482834,-0.2663854956626892,-0.9442694187164307,0.028948717213895688,0.0060284097510177725,0.037928470992904154,0.9988428725981987,0.17259825766086578,-0.05874054133892059,-0.19417156279087067,0.006954953074455261,-0.012988418340682983,-0.009033501148223877
2025-09-20T02:19:31Z,0.008876301488484064,0.06187022841698352,0.07160719406790515,-0.19346822798252106,-0.27053868770599365,-0.9430688619613647,0.030751261054609427,0.005540333734503755,0.03591565215374826,0.9988662583557275,0.17887285351753235,-0.06586547940969467,-0.19610877335071564,0.005578279495239258,-0.009208142757415771,-0.008488833904266357
2025-09-20T02:19:31Z,0.007850907613430602,0.06554063473897519,0.06764510347372556,-0.1936025619506836,-0.27478811144828796,-0.9418118596076965,0.032612791361709574,0.005029050345067009,0.033926230945512365,0.9988793690878144,0.1872807890176773,-0.06344752013683319,-0.1933918446302414,0.006325423717498779,-0.010891348123550415,-0.010408282279968262
2025-09-20T02:19:31Z,0.006830039898282584,0.06941938010334368,0.06369762814125958,-0.19373078644275665,-0.27922293543815613,-0.9404801726341248,0.03457624191699108,0.004516273226221915,0.03194251677031695,0.998881190170239,0.20284034311771393,-0.06751122325658798,-0.20284491777420044,0.007469087839126587,-0.017388224601745605,-0.011062383651733398
2025-09-20T02:19:31Z,0.005668686411650839,0.07362859961264,0.05944338197595723,-0.19392026960849762,-0.28402072191238403,-0.9390032887458801,0.036705411842820224,0.0039249390567377,0.02980133700805054,0.998873893027691,0.21598093211650848,-0.0758327916264534,-0.2199997901916504,0.006805285811424255,-0.018556952476501465,-0.01459801197052002
2025-09-20T02:19:31Z,0.004612814963942168,0.07800004743610521,0.05497826201873979,-0.193959042429924,-0.2890027165412903,-0.9374738931655884,0.038911961556213556,0.0033754485011981885,0.027554590867926155,0.9988568814628885,0.21944837272167206,-0.06168559566140175,-0.2191656529903412,0.0069276392459869385,-0.011996448040008545,-0.01961970329284668
2025-09-20T02:19:31Z,0.0036792910403708264,0.0823679998755796,0.05064090766176956,-0.1939040720462799,-0.29394593834877014,-0.9359471201896667,0.04111255515527886,0.0028798850154601757,0.025371955679087954,0.9988281813413471,0.22051802277565002,-0.06298640370368958,-0.20560482144355774,0.0034286975860595703,-0.0046433210372924805,-0.015600264072418213
2025-09-20T02:19:31Z,0.002937371034000302,0.08677228942520288,0.04670800994833648,-0.19375140964984894,-0.2988336682319641,-0.9344297051429749,0.043326394411468995,0.002479731823992483,0.02339356434694176,0.9987840099889939,0.223982572555542,-0.05211682245135307,-0.1802675873041153,0.004936471581459045,-0.0013482272624969482,-0.017625808715820312
2025-09-20T02:19:31Z,0.0023295383921913583,0.09131991861332933,0.043453147274346474,-0.19361604750156403,-0.3037131428718567,-0.9328832626342773,0.04560801214747583,0.00215489131597989,0.021755358718225176,0.9987202019718436,0.23256909847259521,-0.039895400404930115,-0.13781140744686127,0.0055707842111587524,0.005398988723754883,-0.01964503526687622
2025-09-20T02:19:31Z,0.0019416773629135577,0.0960919842873562,0.04129679303787381,-0.1935114562511444,-0.3085789978504181,-0.931306779384613,0.04799722998991714,0.0019611318562833702,0.020669711659872,0.9986315901616711,0.24515002965927124,-0.017864905297756195,-0.0697125568985939,0.0055855512619018555,0.014600425958633423,-0.024257540702819824
2025-09-20T02:19:31Z,0.0023307227696251357,0.10120108432468823,0.041884044494302934,-0.19328069686889648,-0.31321701407432556,-0.9298051595687866,0.05054345782710083,0.00222276198346696,0.020972605971790355,0.9984990973329806,0.252257764339447,0.01996171846985817,0.024720102548599243,0.007186517119407654,0.023298531770706177,-0.026188910007476807
2025-09-20T02:19:31Z,0.0027169448087337364,0.10631039536819673,0.042469612355729006,-0.19305336475372314,-0.3178474009037018,-0.9282798171043396,0.05308934235539501,0.002484370806868609,0.021275362002704884,0.9983599385507025,0.2593654692173004,0.057788338512182236,0.11915275454521179,0.008790895342826843,0.03198897838592529,-0.028144001960754395
2025-09-20T02:19:31Z,0.003789154503428631,0.11156127352643058,0.0455017926058998,-0.19272299110889435,-0.322124183177948,-0.9268731474876404,0.055694157699575725,0.0031594300453904253,0.0228191107745697,0.998182013846733,0.268902063369751,0.09614133834838867,0.21589085459709167,0.010438308119773865,0.033304423093795776,-0.02741408348083496
2025-09-20T02:19:31Z,0.00541944402803691,0.11702771929659884,0.05076195144174311,-0.19235944747924805,-0.3261539041996002,-0.9255384802818298,0.05839277602472959,0.004188336798642994,0.0254931394921657,0.9979593120385696,0.27775293588638306,0.13564904034137726,0.3156307339668274,0.01130649447441101,0.03266221284866333,-0.028349995613098145
2025-09-20T02:19:31Z,0.007701246534595195,0.12261017356947256,0.05801417873834346,-0.1918209046125412,-0.3298833966255188,-0.9243276715278625,0.061128998803146394,0.00561866973704803,0.029184139305995935,0.9976872655776683,0.2836327850818634,0.17744970321655273,0.40644246339797974,0.012122690677642822,0.02859550714492798,-0.028232216835021973
2025-09-20T02:19:31Z,0.010490582137692517,0.12827828536911068,0.06688410894644771,-0.19115431606769562,-0.3333503305912018,-0.9232212901115417,0.06388344162594443,0.00737460102626455,0.03370262198012737,0.9973607767632654,0.2842366397380829,0.21120449900627136,0.4742349684238434,0.011375918984413147,0.02034658193588257,-0.02606862783432007
2025-09-20T02:19:31Z,0.013695840562044006,0.13407508240197727,0.07700177380548343,-0.19035933911800385,-0.33666011691093445,-0.9221839904785156,0.06667313883612479,0.009405796653979436,0.03886239819457059,0.996973370240465,0.28777387738227844,0.23939025402069092,0.53066486120224,0.010679751634597778,0.01361873745918274,-0.02364790439605713
2025-09-20T02:19:31Z,0.017200236803752374,0.13993314329542864,0.08816927454796633,-0.18949544429779053,-0.3397832214832306,-0.9212159514427185,0.06946091938324794,0.011651459310057852,0.04456154776192449,0.9965207692485852,0.2889082431793213,0.2612083852291107,0.5761033296585083,0.0103597491979599,0.008338391780853271,-0.021854639053344727
2025-09-20T02:19:31Z,0.021000617681079466,0.14566762669776936,0.10040986663523725,-0.18856215476989746,-0.3425389230251312,-0.920386552810669,0.07214820225554182,0.014110732081760828,0.05081116429605203,0.9959988473344938,0.2773537337779999,0.26979005336761475,0.6003180742263794,0.008194759488105774,0.003404170274734497,-0.01776719093322754
2025-09-20T02:19:31Z,0.024732994063086634,0.15144766818147853,0.11263888926293243,-0.18766723573207855,-0.34530118107795715,-0.9195368885993958,0.07483166980906052,0.01656926542048733,0.05705811225001769,0.99542457209345,0.2657991945743561,0.2783717215061188,0.6245328187942505,0.0060681551694869995,-0.0015235543251037598,-0.013700008392333984
2025-09-20T02:19:31Z,0.028353835564578322,0.15700541007048444,0.12520531149739747,-0.18691736459732056,-0.3477523624897003,-0.9187656044960022,0.0773764397618204,0.019010830527565976,0.06347239874535367,0.9947978366949025,0.25378406047821045,0.26972031593322754,0.6319000124931335,0.005136117339134216,-0.008318424224853516,-0.0082780122756958
2025-09-20T02:19:31Z,0.031631278562611005,0.16236446552519734,0.13784805659865612,-0.18646974861621857,-0.349968820810318,-0.918014645576477,0.07980485113638879,0.021309608406611856,0.06991350922413377,0.9941273161928604,0.2459576427936554,0.2560165524482727,0.631210446357727,0.003995299339294434,-0.013941019773483276,-0.005073726177215576
2025-09-20T02:19:31Z,0.03454197667931975,0.167593986266663,0.15042239966349363,-0.18631592392921448,-0.3520455062389374,-0.9172515273094177,0.08215676235968825,0.023449106663423938,0.07630688989715703,0.9934171557613646,0.23723691701889038,0.24244657158851624,0.6247592568397522,0.004215866327285767,-0.01710188388824463,-0.004448592662811279
2025-09-20T02:19:31Z,0.03717053516894101,0.1726288555266634,0.1627691636454277,-0.1863459050655365,-0.3539593815803528,-0.9165085554122925,0.08440194044271135,0.02546072115514341,0.08257493009534653,0.9926779291262596,0.22077473998069763,0.22983962297439575,0.6041931509971619,0.006137445569038391,-0.02401822805404663,-0.005025684833526611
2025-09-20T02:19:31Z,0.03955521654788418,0.17730791835321955,0.17458100381099279,-0.1864648163318634,-0.35563427209854126,-0.9158357381820679,0.08646620464503442,0.027340848204217033,0.08856462369824691,0.991933653006513,0.19848228991031647,0.21679416298866272,0.5701428055763245,0.00804854929447174,-0.02993464469909668,-0.004527151584625244
2025-09-20T02:19:31Z,0.041640412180287634,0.18115552876300003,0.1850266290137809,-0.18656471371650696,-0.35682767629623413,-0.9153510928153992,0.0881322505598785,0.028999147278821424,0.09385783738378918,0.9912530187572421,0.17467762529850006,0.19887804985046387,0.5247735977172852,0.00784572958946228,-0.032981038093566895,-0.003006279468536377
2025-09-20T02:19:31Z,0.043686072668880485,0.18502432295429477,0.19547153846362728,-0.18667897582054138,-0.3580182194709778,-0.9148628115653992,0.0897952856493261,0.030656448723223872,0.09914786400341197,0.9905386306368144,0.15087296068668365,0.18096193671226501,0.47940441966056824,0.007657259702682495,-0.036030203104019165,-0.0014890432357788086
2025-09-20T02:19:31Z,0.04535544662478412,0.18833592385802975,0.20479939756629503,-0.18690386414527893,-0.35893312096595764,-0.9144582748413086,0.09120458595689326,0.032066296530429965,0.10386279009038525,0.9898817722654897,0.1297711431980133,0.15772362053394318,0.43391862511634827,0.006881803274154663,-0.035005927085876465,-0.0014985203742980957
2025-09-20T02:19:31Z,0.04680577129960814,0.1911990003941402,0.21316266315884366,-0.18713060021400452,-0.3596430718898773,-0.9141328930854797,0.09240832137368366,0.03331330009253198,0.10808594242127972,0.9892766193464327,0.11012336611747742,0.14546754956245422,0.3939630687236786,0.007362574338912964,-0.03361794352531433,-0.005606949329376221
2025-09-20T02:19:31Z,0.048142881734674604,0.19363812840621294,0.22079924574355508,-0.18730983138084412,-0.36012139916419983,-0.9139078855514526,0.0934121370684917,0.034457900012236684,0.11194029932355065,0.9887143429498868,0.09288592636585236,0.1285407394170761,0.361869752407074,0.005929738283157349,-0.030988991260528564,-0.0028948187828063965
2025-09-20T02:19:31Z,0.04914636739744263,0.1957422888206113,0.22775302603714523,-0.18765544891357422,-0.36044204235076904,-0.9137105345726013,0.09427415217842774,0.035394802022837644,0.1154380051166516,0.9881971211180838,0.0769280344247818,0.10214731842279434,0.33199524879455566,0.004179045557975769,-0.02907276153564453,0.00045555830001831055
2025-09-20T02:19:31Z,0.04985191780131479,0.19754319173080068,0.23422716939361518,-0.1881735622882843,-0.3605899214744568,-0.9135456085205078,0.09500716814073447,0.03615074795555778,0.1186813223944719,0.9877152666321494,0.06502414494752884,0.09145201742649078,0.3096920847892761,0.004921838641166687,-0.02917921543121338,-0.00130385160446167
2025-09-20T02:19:31Z,0.050339623169876155,0.19914788042602563,0.24011904832022188,-0.1887771040201187,-0.3606872260570526,-0.9133827090263367,0.09566324616885184,0.03676485480726664,0.12162412518987648,0.9872712134028183,0.06078974902629852,0.07528652250766754,0.27272024750709534,0.006002902984619141,-0.03353622555732727,-0.0027054548263549805
2025-09-20T02:19:31Z,0.05074685098774393,0.20062147318649998,0.24527099742568356,-0.18931706249713898,-0.3608309328556061,-0.9132141470909119,0.09627054811150834,0.03729991758165546,0.12419583228973693,0.9868718554098896,0.0541304387152195,0.06670165807008743,0.23637036979198456,0.009076729416847229,-0.03274610638618469,-0.008558511734008789
2025-09-20T02:19:31Z,0.05119220986802075,0.20172392317522003,0.24928298150971004,-0.18961533904075623,-0.3608989715576172,-0.9131253957748413,0.09671161072249969,0.03777941055501297,0.12620369926315347,0.9865557510088332,0.04405396059155464,0.05979335680603981,0.20397771894931793,0.008777812123298645,-0.028530508279800415,-0.008319199085235596
2025-09-20T02:19:31Z,0.05163314014708873,0.2028280843660595,0.25329535897347044,-0.18991398811340332,-0.3609657287597656,-0.9130369424819946,0.0971522217688582,0.03825872615290758,0.12821098899923156,0.986235115665818,0.033977482467889786,0.05288505554199219,0.1715850532054901,0.008479282259941101,-0.024316221475601196,-0.00807952880859375
2025-09-20T02:19:32Z,0.05196272819484491,0.20365381988292136,0.2566951414849478,-0.19020222127437592,-0.36092108488082886,-0.9129945635795593,0.0974730013407385,0.03863778396666239,0.12990851695423988,0.985966505334599,0.02449098601937294,0.041139788925647736,0.15179401636123657,0.007268279790878296,-0.019295930862426758,-0.004724383354187012
2025-09-20T02:19:32Z,0.05204728674764758,0.20429724187615256,0.2596629249082188,-0.1906355917453766,-0.3608107566833496,-0.9129477739334106,0.09772735504951753,0.03886463460725569,0.13137957939955688,0.9857374521135247,0.01626470685005188,0.024239597842097282,0.13185375928878784,0.006195858120918274,-0.01987534761428833,-0.0027641654014587402
2025-09-20T02:19:32Z,0.05191427203253543,0.20470308985806204,0.2621172719984645,-0.19117529690265656,-0.3606046140193939,-0.9129164218902588,0.09788854067385606,0.03894482348823458,0.13258514141179198,0.9855568721999376,0.007965948432683945,0.010197618044912815,0.10376568883657455,0.007012903690338135,-0.02402248978614807,-0.003913998603820801
2025-09-20T02:19:32Z,0.05161420521494449,0.20491387763784324,0.26394245755678775,-0.19175763428211212,-0.3603685796260834,-0.912887454032898,0.09797691738364063,0.03889980682425479,0.13347108018976483,0.9854302767923883,-0.0008325092494487762,-0.0061000315472483635,0.07231656461954117,0.005622252821922302,-0.025352030992507935,-0.004879891872406006
2025-09-20T02:19:32Z,0.051085241270693034,0.2047901776045884,0.2645790322719139,-0.19234424829483032,-0.36010828614234924,-0.9128667712211609,0.0979389190785712,0.03866241639306578,0.13375808122954236,0.9854045105627303,-0.008332381024956703,-0.020956140011548996,0.03811931237578392,0.003692835569381714,-0.026231437921524048,-0.0053367018699646
2025-09-20T02:19:32Z,0.05055636518827095,0.20466617067652615,0.2652154899838144,-0.1929306834936142,-0.35984766483306885,-0.9128457903862,0.09790092279291593,0.03842501983172899,0.13404505203994085,0.9853785655520945,-0.01583225280046463,-0.03581225126981735,0.003922060132026672,0.0017632246017456055,-0.027111202478408813,-0.00579380989074707
2025-09-20T02:19:32Z,0.049848574741544284,0.20427947051791456,0.26502555072231715,-0.19353818893432617,-0.3595432639122009,-0.9128371477127075,0.09776131049590751,0.03804207691974253,0.13391466947294745,0.9854250087717201,-0.023039143532514572,-0.04145708307623863,-0.0284024178981781,0.0042386651039123535,-0.02595973014831543,-0.009426653385162354
2025-09-20T02:19:32Z,0.04911161238226214,0.2037738801911373,0.26429641498368805,-0.19408045709133148,-0.3592575490474701,-0.9128344655036926,0.09757509039836508,0.03761080881375415,0.13351665117443764,0.9855139352332776,-0.02642855793237686,-0.04399638995528221,-0.0472148098051548,0.0037024319171905518,-0.023256361484527588,-0.008989155292510986
2025-09-20T02:19:32Z,0.048413462511909984,0.20329083866970968,0.2631550336832661,-0.19451884925365448,-0.35908839106559753,-0.9128077030181885,0.09740474353990362,0.03718014691719432,0.13291758557176736,0.9856280737179955,-0.023201456293463707,-0.052781105041503906,-0.06478699296712875,0.00314176082611084,-0.02447521686553955,-0.0067252516746521
2025-09-20T02:19:32Z,0.04769162026910121,0.20280831037816707,0.2616478591509134,-0.1949174404144287,-0.35900482535362244,-0.91275554895401,0.09724245000417263,0.03672023423390392,0.13213712642475797,0.9857663110674847,-0.01947229728102684,-0.05379628390073776,-0.08683754503726959,0.005952909588813782,-0.02791532874107361,-0.006783545017242432
2025-09-20T02:19:32Z,0.04697316245239153,0.20232988541348104,0.2595894146680655,-0.19521990418434143,-0.35905301570892334,-0.9126719832420349,0.09709129899758273,0.03623573544479407,0.13108512280960652,0.9859395365152764,-0.020979220047593117,-0.058778513222932816,-0.11328540742397308,0.007120072841644287,-0.02637624740600586,-0.0035694241523742676
2025-09-20T02:19:32Z,0.046280451087375475,0.20172003324271096,0.25694110000788295,-0.19539625942707062,-0.35911911725997925,-0.9126082062721252,0.09688325548921081,0.03572743919280836,0.12974279040607878,0.9861561056143595,-0.033231958746910095,-0.0718844085931778,-0.14150698482990265,0.006323531270027161,-0.023501336574554443,-0.0013458728790283203
2025-09-20T02:19:32Z,0.04537748737002703,0.2007037971513118,0.2537254861950182,-0.1956600695848465,-0.3589489161968231,-0.9126186370849609,0.0964969186409493,0.03506349500556991,0.1281083702434743,0.9864314730513196,-0.059871606528759,-0.0810687392950058,-0.17527908086776733,0.00670585036277771,-0.02056381106376648,-0.003887355327606201
2025-09-20T02:19:32Z,0.04456639174656992,0.19907021364168562,0.24976417671133355,-0.19570082426071167,-0.35839205980300903,-0.9128287434577942,0.09581092037743515,0.03437274682972977,0.12610735048670285,0.9867804197516197,-0.09406714141368866,-0.08050619065761566,-0.21256832778453827,0.008772805333137512,-0.019905298948287964,-0.009238898754119873
2025-09-20T02:19:32Z,0.04388649697895959,0.1966103604148916,0.24503876802445038,-0.19547449052333832,-0.35726186633110046,-0.9133201241493225,0.09471916145959777,0.03366382327280033,0.12373110828409861,0.9872110149685749,-0.1305866241455078,-0.0768594965338707,-0.25738584995269775,0.008843675255775452,-0.02042439579963684,-0.01146697998046875
2025-09-20T02:19:32Z,0.043528578463477276,0.19351020320676965,0.23942194889313004,-0.19478537142276764,-0.3557526171207428,-0.9140561819076538,0.09330327121153423,0.03304001246747819,0.12092584606217058,0.987714436389897,-0.16062602400779724,-0.07168728113174438,-0.2991054654121399,0.008628159761428833,-0.022335022687911987,-0.01240009069442749
2025-09-20T02:19:32Z,0.043306116393193046,0.18980945415772607,0.23304062561585503,-0.19382289052009583,-0.3538673520088196,-0.9149921536445618,0.09159190060452295,0.03242196274735378,0.11774434835742134,0.9882793553678411,-0.18263661861419678,-0.07140064239501953,-0.3352947235107422,0.007141441106796265,-0.024580389261245728,-0.013206303119659424
2025-09-20T02:19:32Z,0.04331854307501834,0.185728541953132,0.2259482122453903,-0.1925051510334015,-0.351789653301239,-0.9160708785057068,0.08968707542759179,0.031878252674867595,0.1142173841075609,0.9888854823117295,-0.1973942667245865,-0.06010974943637848,-0.3724578619003296,0.0069623589515686035,-0.03125542402267456,-0.019881010055541992
2025-09-20T02:19:32Z,0.04370590166663524,0.18145429384776104,0.21806992873797254,-0.19068899750709534,-0.34970250725746155,-0.9172490835189819,0.08767513489009587,0.031489057868341434,0.11031362787828283,0.9895213575867318,-0.19747287034988403,-0.05232679843902588,-0.4146409034729004,0.003642633557319641,-0.03896889090538025,-0.02298051118850708
2025-09-20T02:19:32Z,0.044131292125182395,0.17722692992012012,0.20931820941239934,-0.18866610527038574,-0.347840279340744,-0.91837477684021,0.08569595500741849,0.031099957334222068,0.10597484111505125,0.9901808957308282,-0.18835142254829407,-0.060983870178461075,-0.4660200774669647,-9.943544864654541e-05,-0.04911944270133972,-0.021816253662109375
2025-09-20T02:19:32Z,0.044522271634820185,0.17323108775266985,0.19935584403385465,-0.18643918633460999,-0.34644296765327454,-0.9193572402000427,0.08384977549955071,0.030672240521459126,0.1010313644788958,0.9908688106650531,-0.168697327375412,-0.0754489079117775,-0.5268437266349792,-0.0019104033708572388,-0.06146937608718872,-0.02442711591720581
2025-09-20T02:19:32Z,0.044709687795578865,0.16961941725009194,0.1881305850853417,-0.18414849042892456,-0.34565553069114685,-0.9201149940490723,0.08222053096872384,0.030128535498469767,0.0954507727654432,0.9915750625200878,-0.14617976546287537,-0.09493973851203918,-0.5850558280944824,-0.002623915672302246,-0.0672789216041565,-0.025880813598632812
2025-09-20T02:19:32Z,0.04477432175534109,0.1663906151868298,0.17587254995529497,-0.18175384402275085,-0.3454195261001587,-0.9206795692443848,0.08079839792395996,0.029517878647626686,0.08935031959586102,0.9922785625430994,-0.12924955785274506,-0.10292769223451614,-0.6266248822212219,-0.001714855432510376,-0.06168407201766968,-0.02407658100128174
2025-09-20T02:19:32Z,0.04476726300107822,0.1634048673537101,0.16298962785262794,-0.179275780916214,-0.345512330532074,-0.9211304783821106,0.07950443477547729,0.028874965291748288,0.08293331753007827,0.9929588310763579,-0.11547335982322693,-0.11099524050951004,-0.6477647423744202,0.0015929043292999268,-0.04825681447982788,-0.01215273141860962
2025-09-20T02:19:32Z,0.044423133202714446,0.16067524209077594,0.1498466364522363,-0.17702479660511017,-0.3458629846572876,-0.921434223651886,0.07834924481898094,0.028081583916857437,0.07637077187669794,0.9935996418280036,-0.10477235168218613,-0.13469070196151733,-0.6503061652183533,0.0012865960597991943,-0.0356786847114563,0.001079559326171875
2025-09-20T02:19:32Z,0.0436077239560465,0.15809241843550134,0.13678312252503314,-0.1751880794763565,-0.3462974429130554,-0.921622097492218,0.07727532261369928,0.027078220526674312,0.06982623357387285,0.9941929442818598,-0.10161507874727249,-0.15073251724243164,-0.6441547274589539,0.005308851599693298,-0.024473100900650024,0.0044637322425842285
2025-09-20T02:19:32Z,0.04246068745059642,0.15554065368976333,0.12406222874382537,-0.17368897795677185,-0.34665483236312866,-0.9217714667320251,0.07621303304000364,0.02593901981735007,0.06343616898894795,0.9947334376060559,-0.1058950275182724,-0.16426736116409302,-0.6196083426475525,0.008053898811340332,-0.012107551097869873,0.005759716033935547
2025-09-20T02:19:32Z,0.0410519153285463,0.15289857717780928,0.11192450467620232,-0.17251338064670563,-0.3467762768268585,-0.9219465255737305,0.07509457260437186,0.024703509776036213,0.05732303275118946,0.9952208567589206,-0.11336703598499298,-0.16446992754936218,-0.584661066532135,0.012344449758529663,-0.0026455819606781006,0.004541337490081787
2025-09-20T02:19:32Z,0.0394413966338565,0.15021600922580883,0.10046435471034065,-0.1716313511133194,-0.3466915190219879,-0.9221429824829102,0.07394084637673112,0.023405997948043704,0.05153758970639107,0.9956549217233502,-0.11527452617883682,-0.17213937640190125,-0.5525012016296387,0.014401882886886597,0.00076255202293396,0.0024054646492004395
2025-09-20T02:19:32Z,0.03762302190106711,0.14745057954195573,0.08967282071554394,-0.1710517555475235,-0.34636765718460083,-0.9223723411560059,0.07273065628161243,0.02204134346421807,0.04607587774677225,0.9960429017411029,-0.12230098992586136,-0.17172017693519592,-0.5186828970909119,0.017802998423576355,0.004874169826507568,-0.00775068998336792
2025-09-20T02:19:32Z,0.03577859080490075,0.144529450095098,0.07966214446222064,-0.1706346869468689,-0.3457191586494446,-0.9226928353309631,0.07142256822183594,0.020702158193672205,0.04100080191185313,0.9963880828583674,-0.13911622762680054,-0.15304219722747803,-0.4808598458766937,0.024691641330718994,0.012964099645614624,-0.022113442420959473
2025-09-20T02:19:32Z,0.03457793821574733,0.1411354210471255,0.07048472023588105,-0.16977469623088837,-0.3444487750530243,-0.9233263731002808,0.06984720876339437,0.01971839428464848,0.036360328689299885,0.9966998281536875,-0.17005100846290588,-0.09779985249042511,-0.4350166618824005,0.03288395702838898,0.016693174839019775,-0.03242748975753784
2025-09-20T02:19:32Z,0.03425962375024996,0.13726236024782995,0.06234441190083945,-0.16829900443553925,-0.3425135612487793,-0.9243159294128418,0.06800134174725148,0.01921739504248687,0.03226331277247739,0.9969781720739693,-0.1890842765569687,-0.058286573737859726,-0.3862934410572052,0.03195732831954956,0.015471398830413818,-0.022730529308319092
2025-09-20T02:19:32Z,0.034392198849359006,0.13320628667862683,0.05482205152206563,-0.16652370989322662,-0.34027132391929626,-0.9254648685455322,0.06604884604355514,0.018974497181377854,0.028486767407742253,0.997229067893046,-0.1896866410970688,-0.040436096489429474,-0.37381818890571594,0.033173590898513794,0.0019439756870269775,-0.009194254875183105
2025-09-20T02:19:32Z,0.034504646055455904,0.1289486629485316,0.04738610438777457,-0.1647719442844391,-0.3378107249736786,-0.9266790747642517,0.06399415222214166,0.018736957445603126,0.024749288931792113,0.9974673328034669,-0.20805877447128296,-0.04102610796689987,-0.3751673102378845,0.03550608456134796,0.003905683755874634,-0.013301670551300049
2025-09-20T02:19:32Z,0.034585122706652933,0.12469025042079819,0.03995466880189512,-0.16303972899913788,-0.33533206582069397,-0.9278849363327026,0.06193825499037739,0.01849907628970032,0.021011356313219372,0.9976872391037712,-0.22643089294433594,-0.04161612316966057,-0.3765164315700531,0.03785811364650726,0.005849331617355347,-0.017417430877685547
2025-09-20T02:19:32Z,0.034849739501179165,0.11950290323054104,0.032728831625867094,-0.16115978360176086,-0.3319399654865265,-0.9294317364692688,0.059414234269725974,0.018367589316813468,0.017372353967191806,0.9979131725262931,-0.277898371219635,-0.0191970132291317,-0.35930678248405457,0.03562620282173157,0.014999151229858398,-0.030994534492492676
2025-09-20T02:19:32Z,0.035601825617996394,0.11325564641683,0.0259356267906296,-0.15889818966388702,-0.3274663984775543,-0.9314060211181641,0.05635338771814959,0.018503756095366367,0.01395196318145481,0.998141904637824,-0.3213466703891754,0.0030997414141893387,-0.3373205363750458,0.03167830407619476,0.013812541961669922,-0.03200876712799072
2025-09-20T02:19:32Z,0.03646079944707473,0.10648223093500787,0.019471591086921973,-0.15659239888191223,-0.3224216103553772,-0.9335540533065796,0.05302737744386241,0.018720701865310697,0.010690279562061127,0.998360345447785,-0.33313822746276855,0.0007755828555673361,-0.3232186436653137,0.023792386054992676,0.0012910962104797363,-0.021759092807769775
2025-09-20T02:19:32Z,0.037036911400037224,0.09971907687841892,0.01321392383258547,-0.15458670258522034,-0.31732526421546936,-0.9356322288513184,0.049707057544022534,0.018823205729896826,0.00752043781153574,0.9985581569675777,-0.3195473551750183,-0.013386193662881851,-0.3207586109638214,0.017834186553955078,-0.015415459871292114,-0.0184972882270813
2025-09-20T02:19:32Z,0.0372805981128821,0.09333919546051274,0.0069433363110884905,-0.15288548171520233,-0.3125666081905365,-0.937511682510376,0.04657963269036749,0.018780746187323907,0.004336842452234411,0.9987286194782325,-0.2934507727622986,-0.02951924502849579,-0.32015830278396606,0.011257484555244446,-0.027494102716445923,-0.023655831813812256
2025-09-20T02:19:32Z,0.03727429571120668,0.08745507032566464,0.000689972181679952,-0.1514212042093277,-0.3082471787929535,-0.9391779899597168,0.04369958322617197,0.018633331316952516,0.001159246044886238,0.99887028132357,-0.27047842741012573,-0.03506834805011749,-0.3213402032852173,0.00766696035861969,-0.03296029567718506,-0.030631303787231445
2025-09-20T02:19:32Z,0.03711428360754308,0.08208311921247685,-0.005667517388352341,-0.1500771939754486,-0.3044072985649109,-0.9406450390815735,0.04107534883968255,0.01842412750417746,-0.0020695276439088874,0.9989840215995134,-0.2462729513645172,-0.037132736295461655,-0.3262505531311035,0.006914734840393066,-0.03402799367904663,-0.03188985586166382
2025-09-20T02:19:32Z,0.03694055167579156,0.07724018805583302,-0.01216218540690928,-0.14871430397033691,-0.3010707497596741,-0.9419344067573547,0.03871542375435855,0.018220360269583055,-0.005362391617226186,0.9990697476809363,-0.21357332170009613,-0.03142515569925308,-0.3374944031238556,0.007703259587287903,-0.036203622817993164,-0.027712464332580566
2025-09-20T02:19:32Z,0.03683639132943711,0.0730810902471713,-0.018919557500502074,-0.14722636342048645,-0.2984068691730499,-0.9430152177810669,0.03669868665104632,0.01805851194792288,-0.008778926633779736,0.999124635512195,-0.18131718039512634,-0.029563164338469505,-0.3433815836906433,0.00826503336429596,-0.030057907104492188,-0.010248303413391113
2025-09-20T02:19:32Z,0.03650959493841703,0.06957268748150018,-0.0256143817164276,-0.14596211910247803,-0.29632723331451416,-0.9438671469688416,0.03500431386861137,0.017795905231452986,-0.01216215807662202,0.9991546816522603,-0.1457681953907013,-0.058869969099760056,-0.3382415175437927,0.004663810133934021,-0.021756887435913086,0.008993327617645264
2025-09-20T02:19:32Z,0.0356025758012633,0.06668216348427446,-0.0323218955522248,-0.14524215459823608,-0.2948165833950043,-0.944451093673706,0.03361276806341315,0.017249516451224082,-0.015555408200484244,0.9991650155229762,-0.1229669526219368,-0.07949097454547882,-0.3371959626674652,0.00632081925868988,-0.018763065338134766,0.012950718402862549
2025-09-20T02:19:32Z,0.03430186987871772,0.06419320705201749,-0.03897104163879303,-0.1449049413204193,-0.29366040229797363,-0.9448630213737488,0.032414267082027805,0.01651282670513597,-0.018921127368192906,0.9991589662523,-0.10857780277729034,-0.09263453632593155,-0.3261653184890747,0.0067522525787353516,-0.012849748134613037,0.010452747344970703
2025-09-20T02:19:32Z,0.03280804689613873,0.06189839270348446,-0.0454479170405908,-0.1447858363389969,-0.29264479875564575,-0.9451963305473328,0.03130464142469445,0.015688178588235128,-0.022200609442954003,0.9991401484792629,-0.10278142988681793,-0.10201149433851242,-0.31936711072921753,0.010242834687232971,-0.009868144989013672,0.008253514766693115
2025-09-20T02:19:32Z,0.030861722657299917,0.05951343932604707,-0.051435137520875814,-0.14520254731178284,-0.2914482355117798,-0.9455020427703857,0.03013555853629672,0.014653335859896198,-0.02524135628953568,0.99911960057401,-0.1163419634103775,-0.12029355764389038,-0.3001784086227417,0.010509580373764038,-0.004355520009994507,0.006320595741271973
2025-09-20T02:19:33Z,0.02890139677907852,0.05714019068611723,-0.057426150135747804,-0.1456272155046463,-0.29025354981422424,-0.9458041787147522,0.028966136798506875,0.013618319536667171,-0.028281801133235886,0.9990873752662366,-0.12990249693393707,-0.13857561349868774,-0.2809896767139435,0.010784253478050232,0.001158982515335083,0.004384100437164307
2025-09-20T02:19:33Z,0.026202586554485374,0.05417540569682929,-0.06281193310148334,-0.14688482880592346,-0.2883882224559784,-0.9461802244186401,0.027479940607115935,0.012239256121564688,-0.031031936493853038,0.9990655626733502,-0.16433405876159668,-0.16284775733947754,-0.24531325697898865,0.009328171610832214,0.012025415897369385,-0.002415180206298828
2025-09-20T02:19:33Z,0.02307622862560512,0.050474289516555075,-0.06720402675182127,-0.14877650141716003,-0.2856503427028656,-0.9467150568962097,0.025606042033421508,0.010679960590631117,-0.03329177027459046,0.9990604938461345,-0.19829273223876953,-0.17933019995689392,-0.19586524367332458,0.008979365229606628,0.015533655881881714,-0.011924266815185547
2025-09-20T02:19:33Z,0.0195104501364267,0.04619324404460943,-0.07056654722517812,-0.15132804214954376,-0.2821822166442871,-0.9473505020141602,0.023423124546797697,0.00893175463260982,-0.03503971825557085,0.9990714530094273,-0.22122374176979065,-0.1972634196281433,-0.14747093617916107,0.008218377828598022,0.012380123138427734,-0.012842416763305664
2025-09-20T02:19:33Z,0.015345151207643393,0.0416075374700267,-0.07294268030950873,-0.15468668937683105,-0.2782517671585083,-0.947970449924469,0.02106752632183167,0.006907242805983765,-0.03629479247941162,0.9990951638558158,-0.2295653223991394,-0.23243704438209534,-0.09826979041099548,0.007730260491371155,0.008973151445388794,-0.004431426525115967
2025-09-20T02:19:33Z,0.010425158836495153,0.03691658242833351,-0.07449363446815731,-0.15896503627300262,-0.2740754783153534,-0.948479175567627,0.018638263450729074,0.004520747762530702,-0.037135212436749554,0.999126226519094,-0.23504826426506042,-0.26763617992401123,-0.05812935158610344,0.006833359599113464,0.005858749151229858,0.0019496679306030273
2025-09-20T02:19:33Z,0.0047474101039964205,0.032124304128433215,-0.07530139438467164,-0.1641484498977661,-0.26967138051986694,-0.9488586187362671,0.01613937192340754,0.0017671339287291061,-0.03759874178161299,0.999161038191087,-0.24252904951572418,-0.30404168367385864,-0.02577817067503929,0.006767481565475464,0.00479474663734436,0.012433886528015137
2025-09-20T02:19:33Z,-0.0017777031717391863,0.02719105871940976,-0.07565683359574595,-0.1702536642551422,-0.2650509774684906,-0.9490846395492554,0.013551766496289357,-0.001402292168252156,-0.03782796102283157,0.9991913788087914,-0.24688787758350372,-0.3559514582157135,-0.00686102919280529,0.0064635127782821655,-0.00085410475730896,0.02547299861907959
2025-09-20T02:19:33Z,-0.00940811649048406,0.02226679499810645,-0.07574001231355215,-0.17748281359672546,-0.26038676500320435,-0.9490514397621155,0.010946974022049891,-0.0051218847386395915,-0.0379105242565817,0.9992080145258518,-0.24297025799751282,-0.4135107696056366,0.0020819539204239845,0.006401494145393372,-0.005698978900909424,0.03255277872085571
2025-09-20T02:19:33Z,-0.018322727176918397,0.017387285253591057,-0.07549999776698874,-0.18601654469966888,-0.2557043731212616,-0.9486902356147766,0.008341233722267779,-0.009482452113804102,-0.03781761167631998,0.9992048153576752,-0.2477220594882965,-0.4745388627052307,0.030060049146413803,0.0033757686614990234,-0.001352161169052124,0.03149908781051636
2025-09-20T02:19:33Z,-0.02832891763714854,0.012204312709348809,-0.0747336950213873,-0.19572018086910248,-0.25063782930374146,-0.9480898380279541,0.005568116821682495,-0.014381775840294824,-0.037440080518795035,0.9991798317654891,-0.2724752426147461,-0.5257318019866943,0.06589089334011078,-0.0007573068141937256,0.0077077895402908325,0.022384822368621826
2025-09-20T02:19:33Z,-0.03913005092855931,0.006331107334416236,-0.07314656167283405,-0.2063848078250885,-0.24476666748523712,-0.9473618865013123,0.0024474776866293037,-0.019666324528238684,-0.03661983810596609,0.9991326633157886,-0.3115737736225128,-0.5582665205001831,0.11988872289657593,-0.004102438688278198,0.017120271921157837,0.011051952838897705
2025-09-20T02:19:33Z,-0.05042480501370634,-0.0004581835330824179,-0.07032174364067172,-0.21782706677913666,-0.2378004491329193,-0.9465739727020264,-0.0011150912009393406,-0.025186101063830554,-0.03513668616165084,0.9990643691767639,-0.3536069393157959,-0.5716496706008911,0.19526295363903046,-0.00895722210407257,0.026684001088142395,0.002461850643157959
2025-09-20T02:19:33Z,-0.06195072471612375,-0.008161828745870799,-0.06590582166665702,-0.2298821359872818,-0.22967378795146942,-0.9457294344902039,-0.005097103556988275,-0.03081895158811298,-0.03280455265975149,0.9989734224133895,-0.39169061183929443,-0.5828076004981995,0.296745240688324,-0.015558689832687378,0.03683014214038849,-0.0031580328941345215
2025-09-20T02:19:33Z,-0.07234539856035993,-0.01689260440583921,-0.05849857223950866,-0.2415907084941864,-0.22002767026424408,-0.9451041221618652,-0.009494672547457743,-0.03590120429024648,-0.028919617374996185,0.9988916991471788,-0.40575528144836426,-0.5125236511230469,0.3842601478099823,-0.008906722068786621,0.030884146690368652,-0.019843220710754395
2025-09-20T02:19:33Z,-0.08267698600109444,-0.025699699330251086,-0.05118111862469614,-0.2532142698764801,-0.21029438078403473,-0.9442768692970276,-0.013891686440584836,-0.040981270187715114,-0.025032942476812526,0.9987496515015376,-0.4198199510574341,-0.4422396719455719,0.4717750549316406,-0.0023397505283355713,0.024850979447364807,-0.03673034906387329
2025-09-20T02:19:33Z,-0.09047336394205366,-0.03492029153791385,-0.04199274214612266,-0.2628774046897888,-0.1998046189546585,-0.943913996219635,-0.01838682223656,-0.04483821953590453,-0.02018079917169202,0.9986210934791868,-0.41761887073516846,-0.3413892984390259,0.5371876358985901,-0.0017552971839904785,0.017076343297958374,-0.04498612880706787
2025-09-20T02:19:33Z,-0.09569343129880131,-0.044139624944469324,-0.03141529862677849,-0.2704121470451355,-0.18903228640556335,-0.944004237651825,-0.02279110662551138,-0.047464692547655805,-0.01462985852461551,0.9985056373667088,-0.39515790343284607,-0.21538981795310974,0.605797529220581,-0.003883659839630127,0.009931743144989014,-0.05183672904968262
2025-09-20T02:19:33Z,-0.09806240140908766,-0.0528299834426664,-0.019551628707600303,-0.27551397681236267,-0.17849792540073395,-0.944579541683197,-0.026857873334734765,-0.04873423874897997,-0.00846607718725337,0.99841463706037,-0.34201866388320923,-0.08890227973461151,0.6576191186904907,-0.008916497230529785,-0.003749459981918335,-0.05497819185256958
2025-09-20T02:19:33Z,-0.09796973519757995,-0.060401377726967694,-0.006503177614070221,-0.2785041630268097,-0.16878506541252136,-0.9454877376556396,-0.03031886315300967,-0.04884463039056553,-0.001767649072369152,0.9983444486016569,-0.2811325192451477,0.014093674719333649,0.7114933729171753,-0.01983436942100525,-0.005345538258552551,-0.05222851037979126
2025-09-20T02:19:33Z,-0.09569859281384202,-0.06688129217372567,0.007659562197387805,-0.2796224057674408,-0.15987528860569,-0.9467054605484009,-0.03321282532007763,-0.04793185229682146,0.0054224416176966396,0.9982834363691183,-0.22598758339881897,0.11551080644130707,0.7575125098228455,-0.025447607040405273,-0.00351029634475708,-0.05207902193069458
2025-09-20T02:19:33Z,-0.09148206747846682,-0.07221282800760989,0.022599161017856452,-0.27900180220603943,-0.15188190340995789,-0.9482035040855408,-0.03554218395173747,-0.04609982954565146,0.012930669666872407,0.9982205911771407,-0.16744518280029297,0.20113113522529602,0.7669805288314819,-0.027679026126861572,-0.013588964939117432,-0.05339938402175903
2025-09-20T02:19:33Z,-0.08552508896615225,-0.07616000535335372,0.03753733558459406,-0.2766549289226532,-0.14518043398857117,-0.9499393105506897,-0.03722757416854296,-0.04342483971391678,0.02036403685239444,0.9981551652884714,-0.09776719659566879,0.275725394487381,0.7481346130371094,-0.024157702922821045,-0.025245413184165955,-0.05061441659927368
2025-09-20T02:19:33Z,-0.07829727812570228,-0.07851725652522412,0.05209901171939193,-0.2729431390762329,-0.14004676043987274,-0.9517819881439209,-0.038186524189774425,-0.040116719907074334,0.027542161600484456,0.9980851188994522,-0.019293688237667084,0.3337974548339844,0.7151389122009277,-0.022927552461624146,-0.03212684392929077,-0.042656779289245605
2025-09-20T02:19:33Z,-0.07030330797300405,-0.07912278449495933,0.06596570411003937,-0.2682814300060272,-0.13670633733272552,-0.9535913467407227,-0.038347095241805323,-0.03640128059267502,0.03431995578383266,0.9980113520745091,0.058325156569480896,0.35670599341392517,0.6640874147415161,-0.023473411798477173,-0.03688634932041168,-0.03399175405502319
2025-09-20T02:19:33Z,-0.062020277481444626,-0.07815912704317006,0.0788705252593722,-0.2630789875984192,-0.1350422501564026,-0.9552764296531677,-0.037799025116417445,-0.03249698911713963,0.04058641813636715,0.997931841943776,0.12162504345178604,0.37023985385894775,0.6064238548278809,-0.02265658974647522,-0.03502042591571808,-0.030567646026611328
2025-09-20T02:19:33Z,-0.05373512108983948,-0.07599599211793451,0.09066567466130526,-0.2575930953025818,-0.13473330438137054,-0.9568138718605042,-0.03671958654024756,-0.02853828735391671,0.046287751217978707,0.9978450570998605,0.15427103638648987,0.3683818578720093,0.554828941822052,-0.026028573513031006,-0.022368714213371277,-0.033033132553100586
2025-09-20T02:19:33Z,-0.0452141423134079,-0.07322543594738418,0.10149109581636401,-0.25164297223091125,-0.13518384099006653,-0.9583324790000916,-0.03540222600577146,-0.02441716144350763,0.05150320912373863,0.9977464472985723,0.1729068011045456,0.4123675227165222,0.5043255686759949,-0.017962932586669922,-0.016614660620689392,-0.047865092754364014
2025-09-20T02:19:33Z,-0.03603881848240402,-0.0698477319944529,0.11104841276905399,-0.24477291107177734,-0.13646206259727478,-0.959929347038269,-0.033857961169761704,-0.019917110322344295,0.056081010805244046,0.9976532214820649,0.19924743473529816,0.43689343333244324,0.42738616466522217,-0.014220431447029114,-0.023425310850143433,-0.046732187271118164
2025-09-20T02:19:33Z,-0.026572873419132045,-0.06537454678403244,0.11765454265373847,-0.2369971126317978,-0.1394023597240448,-0.9614568948745728,-0.03184132487242203,-0.015177259928233074,0.05919020771034522,0.9976233718566999,0.23007793724536896,0.44490814208984375,0.3274064064025879,-0.008662879467010498,-0.029932677745819092,-0.0372239351272583
2025-09-20T02:19:33Z,-0.017139457943266243,-0.0608392514947392,0.12421606781037664,-0.22922708094120026,-0.14239974319934845,-0.9629004597663879,-0.029823522381235784,-0.010436872078156469,0.06229725971755327,0.9975573766419017,0.26090842485427856,0.45292285084724426,0.227426677942276,-0.003099605441093445,-0.03638294339179993,-0.027799606323242188
2025-09-20T02:19:33Z,-0.007894532381130526,-0.055515730588460266,0.12815758358315052,-0.22109922766685486,-0.14670529961585999,-0.9641538858413696,-0.02744445824683415,-0.005714868556720638,0.06411910927605682,0.9975484555144256,0.27714988589286804,0.4517788589000702,0.13896143436431885,-0.0010381191968917847,-0.03314204514026642,-0.019176840782165527
2025-09-20T02:19:33Z,0.001135527492897387,-0.04994913004784771,0.13016830032432156,-0.21278676390647888,-0.15165044367313385,-0.9652584791183472,-0.02495601002991229,-0.0010577472545032305,0.06500377463629738,0.9975722809873834,0.2729859948158264,0.4392547905445099,0.05382165312767029,0.0014420151710510254,-0.029762670397758484,-0.011947691440582275
2025-09-20T02:19:33Z,0.009880974061879466,-0.04457562511801293,0.1304258243858089,-0.20439672470092773,-0.1567787081003189,-0.9662517309188843,-0.022560201267446105,0.0034764558495087483,0.06503985797337343,0.9976214436320807,0.256177693605423,0.4261711835861206,-0.02635454386472702,0.006631195545196533,-0.026621177792549133,-0.006393313407897949
2025-09-20T02:19:33Z,0.018090024919109566,-0.039625264388995635,0.12897647218620056,-0.1961825042963028,-0.1618594527244568,-0.9671162962913513,-0.020352118623614884,0.007747656389356658,0.06424944992672178,0.9976961514090142,0.23619720339775085,0.4024985730648041,-0.11649633198976517,0.011316120624542236,-0.030820220708847046,-0.0034073591232299805
2025-09-20T02:19:33Z,0.025723080237853798,-0.03509357084501071,0.12570040575894362,-0.18815751373767853,-0.16692210733890533,-0.9678500890731812,-0.018317465263677078,0.011731870671333116,0.06256875454134798,0.9978035862556123,0.2136785089969635,0.3787083923816681,-0.20256780087947845,0.016865402460098267,-0.03407992422580719,-0.002872645854949951
2025-09-20T02:19:33Z,0.032986056203179695,-0.031159867370600676,0.12089973188590418,-0.18017908930778503,-0.17172743380069733,-0.9685273170471191,-0.016544959690860585,0.015519092873167757,0.060141038160697255,0.9979321366154587,0.19269801676273346,0.35623955726623535,-0.2647668421268463,0.020906269550323486,-0.03246624767780304,0.00018721818923950195
2025-09-20T02:19:33Z,0.03947299830800366,-0.02760026063503799,0.11492154110374066,-0.17270739376544952,-0.17641429603099823,-0.9690459966659546,-0.01490750278709041,0.01890842002781195,0.057140612772539005,0.9980757479013592,0.17962665855884552,0.31481415033340454,-0.3204670548439026,0.02043481171131134,-0.036683082580566406,0.006238281726837158
2025-09-20T02:19:33Z,0.04383677114192436,-0.02450367810183578,0.10711377749069535,-0.16691051423549652,-0.1810300201177597,-0.9692105054855347,-0.013404164866028006,0.021227880675188975,0.053246287210864746,0.9982657621962767,0.1700841784477234,0.2571197748184204,-0.349831223487854,0.01793225109577179,-0.0342998206615448,0.007525086402893066
2025-09-20T02:19:33Z,0.04822428328181496,-0.021441252871175383,0.09929311257649552,-0.16107773780822754,-0.18560165166854858,-0.969332754611969,-0.011900508831702647,0.023546857421192034,0.04935074160181607,0.9984329301499422,0.16054169833660126,0.19942538440227509,-0.3791953921318054,0.01539379358291626,-0.03196065127849579,0.008769690990447998
2025-09-20T02:19:33Z,0.05263536406122639,-0.018413270602289866,0.09145956433215557,-0.15520958602428436,-0.19012874364852905,-0.9694127440452576,-0.010396589531313352,0.025865303389759585,0.04545406996258967,0.9985773064532251,0.15099921822547913,0.14173100888729095,-0.40855956077575684,0.012819960713386536,-0.029666021466255188,0.009971976280212402
2025-09-20T02:19:33Z,0.05514604588183923,-0.015957740268108103,0.083167781837068,-0.1510723978281021,-0.19418594241142273,-0.9692620635032654,-0.00911494037946572,0.02721325457232137,0.04133500577840508,0.9987329766876293,0.13088135421276093,0.09619246423244476,-0.40437155961990356,0.014523759484291077,-0.021821826696395874,0.003735959529876709
2025-09-20T02:19:33Z,0.056734519862450046,-0.013931233324823876,0.07496320243263732,-0.14783096313476562,-0.19779859483242035,-0.9690313339233398,-0.00802070162306367,0.02808193521077083,0.037259415702581955,0.9988786798511692,0.1143178939819336,0.07418953627347946,-0.40156182646751404,0.017031177878379822,-0.022743314504623413,-0.0037232637405395508
2025-09-20T02:19:33Z,0.05812039125390098,-0.012128046218719287,0.06679713987538835,-0.1447795182466507,-0.20117446780204773,-0.9687970280647278,-0.0070282803074401415,0.02883696515987155,0.03320155429288354,0.9990077527772089,0.10735448449850082,0.06848912686109543,-0.39734509587287903,0.019754871726036072,-0.025306209921836853,-0.006175398826599121
2025-09-20T02:19:33Z,0.059099143676782435,-0.010590504364077685,0.05896205695289782,-0.14217816293239594,-0.20421507954597473,-0.9685460925102234,-0.006161503200462161,0.02937600403853182,0.029307098678181355,0.9991196054917738,0.09237218648195267,0.07009225338697433,-0.3757643401622772,0.014999866485595703,-0.01277470588684082,-0.011612236499786377
2025-09-20T02:19:33Z,0.06008989864407151,-0.009060692666615338,0.05112559318742174,-0.13955365121364594,-0.2072349637746811,-0.9682863354682922,-0.00529463332149205,0.029914566381858267,0.02541216865160056,0.9992152489179912,0.07738988846540451,0.07169537991285324,-0.3541835844516754,0.010221704840660095,-0.000263899564743042,-0.01705789566040039
2025-09-20T02:19:33Z,0.061774227531319975,-0.007964729294291865,0.04414750379832941,-0.13642743229866028,-0.20965752005577087,-0.9682103395462036,-0.004661110240971687,0.030786578024016777,0.021938302729112808,0.9992743295796988,0.0654938593506813,0.10066209733486176,-0.32267478108406067,0.0061743855476379395,0.0019279271364212036,-0.01989799737930298
2025-09-20T02:19:33Z,0.0639602523571729,-0.007020725934602065,0.03781613329047841,-0.13294591009616852,-0.21179790794849396,-0.968228816986084,-0.004112473095075574,0.03190242588227633,0.018784933212525674,0.9993060073343003,0.06685678660869598,0.12204970419406891,-0.2967844307422638,0.0017508119344711304,-0.0019234269857406616,-0.01692020893096924
2025-09-20T02:19:33Z,0.06654067221533248,-0.006029822972105929,0.03195500879858559,-0.12917929887771606,-0.21388337016105652,-0.9682802557945251,-0.0035443079053772233,0.03321166112760642,0.015867635409702836,0.9993160416714975,0.06847301125526428,0.14015509188175201,-0.27766770124435425,-0.001253753900527954,-0.00690557062625885,-0.014643371105194092
2025-09-20T02:19:33Z,0.06937144282207118,-0.005089334462927862,0.02643239980238097,-0.1252383142709732,-0.21584783494472504,-0.968362033367157,-0.003001218764405479,0.03464201877937351,0.013119586029459484,0.9993090898990594,0.06454454362392426,0.13748283684253693,-0.2623724639415741,-0.00372314453125,-0.005244627594947815,-0.006986379623413086
2025-09-20T02:19:34Z,0.07189580965321447,-0.004382432165992798,0.021223012638865307,-0.12165465205907822,-0.2175220400094986,-0.968444287776947,-0.002571046877677525,0.035914819774616,0.010525678947830144,0.9992960275245445,0.04094945639371872,0.11724196374416351,-0.2452559620141983,-0.005868799984455109,0.001612842082977295,-0.004315376281738281
2025-09-20T02:19:34Z,0.07432715479586245,-0.004240164806284472,0.016737267966879278,-0.11830800771713257,-0.2185123711824417,-0.9686359167098999,-0.0024294752140086345,0.03713590920726001,0.008283970281304702,0.9992729312756935,0.006633203476667404,0.1303456574678421,-0.19955198466777802,-0.001215331256389618,0.012324020266532898,-0.008380293846130371
2025-09-20T02:19:34Z,0.07685107789205337,-0.00466196875307276,0.01308693078811044,-0.1150442436337471,-0.2188003659248352,-0.9689639806747437,-0.0025805835968682857,0.03839991576217204,0.006449025530056415,0.9992383014420206,-0.012934379279613495,0.12345893681049347,-0.1677350103855133,0.000965312123298645,0.006702810525894165,-0.004347085952758789
2025-09-20T02:19:34Z,0.07910775081943763,-0.005291627100741567,0.009906867225206322,-0.11213748157024384,-0.21879777312278748,-0.9693052768707275,-0.002839583520301369,0.03952984332329604,0.004844898209495044,0.9992026117670865,-0.020575886592268944,0.10498082637786865,-0.1543983668088913,0.0035054609179496765,-0.001811191439628601,-0.003388643264770508
2025-09-20T02:19:34Z,0.08111509929015132,-0.0059608934467367215,0.0069735489466164645,-0.10952410101890564,-0.2187085747718811,-0.9696241617202759,-0.0031193485988018988,0.04053562140218402,0.0033630390377252153,0.9991675670557617,-0.021041352301836014,0.0975392758846283,-0.14197541773319244,0.0077163949608802795,-0.007386550307273865,-0.006464660167694092
2025-09-20T02:19:34Z,0.08283381232546974,-0.006631986533862158,0.004178668963601215,-0.10721924155950546,-0.21858970820903778,-0.9699085354804993,-0.003399644767895351,0.04139782567744896,0.0019502313750055268,0.999135065383986,-0.0231441929936409,0.0771670863032341,-0.1420280635356903,0.009225554764270782,-0.009395837783813477,-0.006541848182678223
2025-09-20T02:19:34Z,0.08424465806670747,-0.0074320772333763795,0.00142959218386818,-0.10521886497735977,-0.21833689510822296,-0.9701845049858093,-0.0037428325367329647,0.042106916687955,0.0005576755374868974,0.9991059893190835,-0.029499083757400513,0.06835973262786865,-0.1351582407951355,0.012024208903312683,-0.005289822816848755,-0.00956106185913086
2025-09-20T02:19:34Z,0.08561425696870605,-0.00829390317740205,-0.0011399752567241455,-0.10329580307006836,-0.2179896980524063,-0.9704691767692566,-0.004118748025816663,0.042796040728618125,-0.0007469248354310869,0.9990751056879877,-0.03128696233034134,0.07544572651386261,-0.12791839241981506,0.01490733027458191,-0.007549121975898743,-0.014058351516723633
2025-09-20T02:19:34Z,0.08709760082308532,-0.009093711203543152,-0.003655773699495591,-0.1012737974524498,-0.21769025921821594,-0.9707494974136353,-0.004462945375643179,0.04354281856248329,-0.0020240805287318774,0.9990395104690757,-0.023628585040569305,0.07713707536458969,-0.12696300446987152,0.014650464057922363,-0.013811782002449036,-0.014990150928497314
2025-09-20T02:19:34Z,0.08868595704426638,-0.009569517054313878,-0.006373466641161082,-0.09910865128040314,-0.2177371233701706,-0.970962405204773,-0.004638751615809003,0.0443429486914996,-0.003395658043167388,0.998999815686488,-0.012140546925365925,0.0777493417263031,-0.13736963272094727,0.017128735780715942,-0.01776304841041565,-0.014705002307891846
2025-09-20T02:19:34Z,0.09027304364632503,-0.010049603131870111,-0.009090416814152805,-0.09694304317235947,-0.2177780270576477,-0.9711718559265137,-0.0048145288041249075,0.04514297503903121,-0.004767227802604864,0.9989576003720668,-0.000652506947517395,0.0783616155385971,-0.14777624607086182,0.01960652321577072,-0.02172030508518219,-0.014423370361328125
2025-09-20T02:19:34Z,0.09184805596066781,-0.010406140023802196,-0.01216392476875484,-0.09470883011817932,-0.21800100803375244,-0.9713422656059265,-0.004918259962697891,0.04593802575355817,-0.006314286467162601,0.9989122759952217,0.0006580179324373603,0.07726183533668518,-0.16176167130470276,0.020257949829101562,-0.021100327372550964,-0.01375734806060791
2025-09-20T02:19:34Z,0.0932462317829399,-0.01076386091686295,-0.015614918179379073,-0.092558354139328,-0.2182895988225937,-0.9714847207069397,-0.005012025039810105,0.04664610389442208,-0.008049605388660168,0.998866478976722,-0.0069182696752250195,0.06280255317687988,-0.17770744860172272,0.01960194855928421,-0.017882466316223145,-0.009364426136016846
2025-09-20T02:19:34Z,0.09434100970287897,-0.011329436156556835,-0.01936231635810276,-0.09062828868627548,-0.2184300422668457,-0.9716351628303528,-0.005201640318450794,0.04720482651311226,-0.009937177957548346,0.9988222591186793,-0.015670381486415863,0.048062071204185486,-0.19044916331768036,0.018803149461746216,-0.015452712774276733,-0.007953166961669922
2025-09-20T02:19:34Z,0.09510540505339071,-0.012142310154661199,-0.023159868901523127,-0.08899986743927002,-0.21833913028240204,-0.9718060493469238,-0.0055134209577186125,0.047600940864073335,-0.011854942214945829,0.9987808899732609,-0.026746802031993866,0.03492576256394386,-0.18968383967876434,0.02157120406627655,-0.01048712432384491,-0.007195532321929932
2025-09-20T02:19:34Z,0.09579821519067162,-0.013048848105045821,-0.026935228348779493,-0.08744131028652191,-0.21815089881420135,-0.9719898104667664,-0.005871496818089418,0.04796319666306823,-0.013763838623657914,0.9987370141046492,-0.02916967310011387,0.034303318709135056,-0.1938907355070114,0.025392666459083557,-0.012239515781402588,-0.011108696460723877
2025-09-20T02:19:34Z,0.09658470080378337,-0.013940273957284633,-0.03080323194986632,-0.08576783537864685,-0.21799024939537048,-0.9721749424934387,-0.006217685259826576,0.04837390706023626,-0.015719109699527018,0.99868620187707,-0.022232765331864357,0.04518640786409378,-0.1979435682296753,0.023807987570762634,-0.012688755989074707,-0.014440596103668213
2025-09-20T02:19:34Z,0.09741599280923821,-0.014691917999100662,-0.034708923030804445,-0.08404209464788437,-0.21796680986881256,-0.9723309278488159,-0.0064911745570777266,0.04880742381169057,-0.017690151158250306,0.9986303659914356,-0.013797505758702755,0.044402264058589935,-0.19679926335811615,0.01921858638525009,-0.00978553295135498,-0.010286808013916016
2025-09-20T02:19:34Z,0.09824653686131296,-0.015241011694552926,-0.03858395907418674,-0.08232559263706207,-0.21812866628170013,-0.9724414348602295,-0.00666260575163712,0.04923978116819884,-0.01964107445992852,0.9985715596114481,-0.007012522779405117,0.03348604962229729,-0.19184502959251404,0.015846021473407745,-0.005642324686050415,-0.007767915725708008
2025-09-20T02:19:34Z,0.09882736631946674,-0.015725700078684388,-0.04228766803027625,-0.08089036494493484,-0.21831855177879333,-0.9725192785263062,-0.006807157016804045,0.049547045462215174,-0.02150408389775156,0.9985170206423553,-0.006765608210116625,0.03247351571917534,-0.17534251511096954,0.017444409430027008,-0.0010482221841812134,-0.010357558727264404
2025-09-20T02:19:34Z,0.09945384839495672,-0.016250704504588737,-0.04569432958190066,-0.07947659492492676,-0.2184142917394638,-0.9726143479347229,-0.006977586474757931,0.049877215942892225,-0.02321995800526993,0.9984609709188611,-0.012345358729362488,0.03784268721938133,-0.16091682016849518,0.019136007875204086,0.001629754900932312,-0.014439940452575684
2025-09-20T02:19:34Z,0.10032683898877591,-0.016862972215498654,-0.048726650927319766,-0.07790645956993103,-0.21835802495479584,-0.9727540016174316,-0.007196810397888563,0.05033086128419787,-0.024752051788177548,0.9983998514804999,-0.018581507727503777,0.04541589692234993,-0.14334827661514282,0.019358325749635696,0.001525983214378357,-0.012567698955535889
2025-09-20T02:19:34Z,0.10110616775161207,-0.017461522209337846,-0.05140656657966827,-0.07650844752788544,-0.21825125813484192,-0.9728888869285583,-0.007417982178379315,0.05073703499961899,-0.026107670426516304,0.9983431437364316,-0.012545958161354065,0.0311883632093668,-0.12956774234771729,0.01520644873380661,-0.003199160099029541,-0.006168067455291748
2025-09-20T02:19:34Z,0.10147029661639163,-0.017977217174753136,-0.053927368603313854,-0.07555215060710907,-0.21819466352462769,-0.9729763269424438,-0.007606459849539993,0.050934926071253696,-0.027380309768924478,0.9982975700378027,-0.008953920565545559,0.00889536552131176,-0.12279897928237915,0.011340603232383728,-0.00498431921005249,-0.003441035747528076
2025-09-20T02:19:34Z,0.10133069581088823,-0.01839071839678846,-0.056243515146900354,-0.07513516396284103,-0.2181992083787918,-0.9730076193809509,-0.0077558581900640635,0.05087973355826503,-0.028546280277589434,0.9982665415853692,-0.008931166492402554,-0.016380667686462402,-0.10826115310192108,0.007242277264595032,-0.001035243272781372,-0.003222525119781494
2025-09-20T02:19:34Z,0.10081679302903283,-0.018783989741438675,-0.05814362502659576,-0.0751798152923584,-0.2181500643491745,-0.9730151891708374,-0.007911391594147865,0.05063619340458254,-0.029502543456453895,0.9982499261839369,-0.011172198690474033,-0.03703344613313675,-0.08443497121334076,0.00804496556520462,0.0018804669380187988,-0.004906356334686279
2025-09-20T02:19:34Z,0.09995781426469974,-0.019173979633580363,-0.059582528657106844,-0.0756683424115181,-0.21802370250225067,-0.9730056524276733,-0.008082597119457507,0.050218848129941,-0.030227025791122568,0.9982479469784774,-0.008945770561695099,-0.04954715818166733,-0.060410745441913605,0.009438276290893555,0.001334547996520996,-0.007191181182861328
2025-09-20T02:19:34Z,0.09897000804492789,-0.019375602772780297,-0.06062012050605158,-0.07638059556484222,-0.21800874173641205,-0.9729533195495605,-0.00817236524295532,0.0497329999354291,-0.030745879401993945,0.998255729021552,-0.0006820904091000557,-0.0514637716114521,-0.04838017746806145,0.010025978088378906,-0.004292353987693787,-0.008817851543426514
2025-09-20T02:19:34Z,0.09792199790172212,-0.019396134456787385,-0.06155832065439233,-0.07717849314212799,-0.21815037727355957,-0.9728586077690125,-0.008175638306239068,0.04921404954270518,-0.031210383202160054,0.9982669858836131,0.007722492329776287,-0.05382467806339264,-0.04730073735117912,0.010511122643947601,-0.009365290403366089,-0.009683966636657715
2025-09-20T02:19:34Z,0.09672431700239409,-0.019353821027752932,-0.0625257300067463,-0.07811616361141205,-0.21835720539093018,-0.9727373719215393,-0.008149689014064652,0.04861954507195534,-0.03168734258871063,0.9982813106029159,0.010005464777350426,-0.06107044219970703,-0.04702216759324074,0.0084901824593544,-0.01020994782447815,-0.008209586143493652
2025-09-20T02:19:34Z,0.09540884911719376,-0.019267543894868643,-0.0634950363943541,-0.07916852086782455,-0.2186063677072525,-0.9725963473320007,-0.00810421634716671,0.047965537505488494,-0.03216376456343356,0.9982980815995057,0.005474135745316744,-0.07053116708993912,-0.050953276455402374,0.009600043296813965,-0.007209941744804382,-0.008539974689483643
2025-09-20T02:19:34Z,0.09394407574318361,-0.019361275405953924,-0.06451997505898646,-0.08034881949424744,-0.2186919003725052,-0.972480297088623,-0.008150351458602786,0.04724003214622823,-0.032671616082354325,0.998315808747987,-0.0061327009461820126,-0.06788019835948944,-0.046870339661836624,0.012347452342510223,-0.005154773592948914,-0.010695874691009521
2025-09-20T02:19:34Z,0.09259859066638626,-0.019655728217064645,-0.06543120701675402,-0.08143564313650131,-0.2185649275779724,-0.9724184274673462,-0.008298096132850855,0.046576874230296036,-0.033127748200358915,0.9983307252607525,-0.014419415965676308,-0.06283444911241531,-0.05129949375987053,0.014350861310958862,-0.010958865284919739,-0.01368337869644165
2025-09-20T02:19:34Z,0.09126096748529948,-0.0200751942087854,-0.06663419409229651,-0.08244304358959198,-0.21836741268634796,-0.9723778963088989,-0.00850202614959544,0.04592104849416845,-0.03373218461642142,0.9983391568848069,-0.019126269966363907,-0.07053977996110916,-0.06838545203208923,0.015857890248298645,-0.015792042016983032,-0.011669754981994629
2025-09-20T02:19:34Z,0.08973113719258675,-0.020649369206746235,-0.06816055241787224,-0.08355741202831268,-0.2180759608745575,-0.9723482131958008,-0.008779981781941051,0.04517352493506709,-0.034500367167822246,0.9983446327545341,-0.025173602625727654,-0.07370133697986603,-0.08849816024303436,0.019391775131225586,-0.018836572766304016,-0.01205819845199585
2025-09-20T02:19:34Z,0.08837046192574187,-0.02139447179938629,-0.07001947147874961,-0.0844247117638588,-0.2176760882139206,-0.9723628759384155,-0.009134037365418315,0.04451532070093802,-0.035438628374141225,0.9983381481495046,-0.026643997058272362,-0.062429193407297134,-0.10164007544517517,0.021744929254055023,-0.020749911665916443,-0.012809574604034424
2025-09-20T02:19:34Z,0.08702508104707624,-0.022149575832516186,-0.07230182396057855,-0.08517581224441528,-0.21733735501766205,-0.9723731875419617,-0.009484767594126819,0.04386761471653068,-0.03658803004025179,0.9983220657881942,-0.030498942360281944,-0.07014978677034378,-0.11948984861373901,0.02008999139070511,-0.017074525356292725,-0.009438574314117432
2025-09-20T02:19:34Z,0.0856210271699551,-0.023018116179688623,-0.07467803667765123,-0.08595878630876541,-0.21690401434898376,-0.9724010229110718,-0.009892707763177473,0.04319401016192356,-0.03778587448088171,0.9983028501867264,-0.03740479797124863,-0.0695795938372612,-0.12358896434307098,0.018721602857112885,-0.0110025554895401,-0.010790467262268066
2025-09-20T02:19:34Z,0.08412693671809349,-0.023985671272036678,-0.07711671612423233,-0.08681189268827438,-0.21638444066047668,-0.9724409580230713,-0.010352132875030581,0.042478678844556625,-0.039015862786622495,0.9982815667843721,-0.0419028215110302,-0.08287611603736877,-0.12087167054414749,0.014931142330169678,-0.006102427840232849,-0.008543431758880615
2025-09-20T02:19:34Z,0.08232354229896578,-0.02498158157511945,-0.07942190650585478,-0.08799654990434647,-0.2158135622739792,-0.9724613428115845,-0.010836493100308849,0.041609959912335744,-0.04017737700372439,0.998266918447012,-0.03894469887018204,-0.09748667478561401,-0.11703943461179733,0.012893788516521454,-0.005652248859405518,-0.006773650646209717
2025-09-20T02:19:34Z,0.08006754265462247,-0.025819377048196764,-0.08161879365589811,-0.0896495133638382,-0.21537521481513977,-0.9724075794219971,-0.011255519271234232,0.040512680900408805,-0.04127822895310308,0.9982624728789921,-0.03304694965481758,-0.1045369878411293,-0.11045777052640915,0.012846998870372772,-0.0035914480686187744,-0.009111642837524414
2025-09-20T02:19:34Z,0.07780969144240708,-0.026652242722849693,-0.08381763560494518,-0.09130335599184036,-0.2149406522512436,-0.9723498225212097,-0.011674528620609689,0.039415309483961214,-0.042378980264795,0.9982555604077834,-0.027149200439453125,-0.11158730834722519,-0.10387610644102097,0.012801095843315125,-0.0015268027782440186,-0.011453509330749512
2025-09-20T02:19:34Z,0.07539830236565319,-0.027052370573966776,-0.0855429513418468,-0.09322672337293625,-0.21484258770942688,-0.9721890091896057,-0.01189237341631984,0.03823023681493922,-0.043233468674546194,0.9982624471107464,-0.012470507994294167,-0.12295238673686981,-0.08468939363956451,0.009461909532546997,-0.00014379620552062988,-0.007797718048095703
2025-09-20T02:19:34Z,0.07298620497531237,-0.027448349341447353,-0.08726924018716756,-0.09514988213777542,-0.21474792063236237,-0.972023606300354,-0.012110197937359363,0.03704508292364424,-0.044087859504906735,0.9982671679558386,0.0022081825882196426,-0.13431745767593384,-0.06550268083810806,0.006122507154941559,0.00124262273311615,-0.004146456718444824
2025-09-20T02:19:34Z,0.07015421552642148,-0.027345241256418122,-0.08839039265249564,-0.09763368964195251,-0.21503275632858276,-0.9717142581939697,-0.012101170413732347,0.035636075478493096,-0.044628523392350364,0.9982944519079829,0.018509045243263245,-0.15210913121700287,-0.04263141006231308,0.003334514796733856,0.001296699047088623,-0.004778146743774414
2025-09-20T02:19:34Z,0.06697864912683728,-0.02693581946884665,-0.08909836458453463,-0.10055416077375412,-0.21554388105869293,-0.9713031053543091,-0.011955582551343782,0.03404624375550885,-0.04495592770669983,0.9983370269416901,0.027555841952562332,-0.1627720445394516,-0.02368748188018799,0.0044427067041397095,0.0019545555114746094,-0.00976651906967163
2025-09-20T02:19:34Z,0.0637009583655432,-0.02646942070182413,-0.08954547413542614,-0.10363580286502838,-0.21606658399105072,-0.9708629250526428,-0.01178916542516957,0.03240243516139559,-0.045152189673032736,0.9983848425731601,0.023852519690990448,-0.16312967240810394,-0.013618584722280502,0.008710533380508423,0.0012402981519699097,-0.01597881317138672
2025-09-20T02:19:34Z,0.06050733443188809,-0.026061327550676746,-0.08991637459988186,-0.1066516637802124,-0.2165205180644989,-0.9704350829124451,-0.011651803330185525,0.03080127683092489,-0.04531242222837531,0.9984298549621883,0.022237597033381462,-0.15099859237670898,-0.01920204609632492,0.008534610271453857,-0.002146422863006592,-0.018579065799713135
2025-09-20T02:19:34Z,0.057456272246638414,-0.0255448346373341,-0.09029467437165593,-0.10952714085578918,-0.21707990765571594,-0.9699897766113281,-0.01145751717738317,0.02926876763401976,-0.04547619465796792,0.9984707794934542,0.03277625888586044,-0.15516981482505798,-0.019322311505675316,0.005878530442714691,-0.0034280717372894287,-0.010807037353515625
2025-09-20T02:19:34Z,0.05432631913099254,-0.024642365893061496,-0.0906979418657146,-0.1124759092926979,-0.21801461279392242,-0.9694425463676453,-0.011072509587894172,0.027688178725647782,-0.0456475548212035,0.9985124186860718,0.05831177160143852,-0.15577799081802368,-0.018036484718322754,0.0055872052907943726,-0.010187357664108276,-0.007761240005493164
2025-09-20T02:19:35Z,0.05121921242474571,-0.023005856040287515,-0.09144380000488467,-0.11532565951347351,-0.21971140801906586,-0.9687243700027466,-0.010316579125630129,0.026103923215214934,-0.04598220163759741,0.9985478102196875,0.11440928280353546,-0.1722967028617859,-0.06018544360995293,0.006972096860408783,-0.03450159728527069,-0.00418400764465332
2025-09-20T02:19:35Z,0.04726365628280764,-0.02019742609369042,-0.09364222351516355,-0.11865423619747162,-0.2227725386619568,-0.9676226377487183,-0.008978753308025677,0.024075051185708556,-0.04702691888768417,0.9985630152802735,0.17631112039089203,-0.21997800469398499,-0.1437501460313797,0.004545062780380249,-0.047708913683891296,0.0002772808074951172
2025-09-20T02:19:35Z,0.04240916364872948,-0.016395506841628465,-0.09747832144026923,-0.12245668470859528,-0.2270524948835373,-0.9661529660224915,-0.007153114114599787,0.021576403068603908,-0.04888088905986584,0.9985458459044061,0.21870073676109314,-0.2576872706413269,-0.22190037369728088,0.0065843090415000916,-0.04302878677845001,-0.0005701184272766113
2025-09-20T02:19:35Z,0.036826970429676614,-0.012065449407873389,-0.10316099196078736,-0.1265028864145279,-0.23213164508342743,-0.9644231200218201,-0.005074358964259471,0.018698601528092253,-0.05165888084479989,0.9984767619577429,0.2407682240009308,-0.28812146186828613,-0.31414249539375305,0.00828484445810318,-0.041804686188697815,-0.0021001696586608887
2025-09-20T02:19:35Z,0.029807228943279442,-0.00684407770797079,-0.11209745944769783,-0.13112276792526245,-0.2385735809803009,-0.9622315168380737,-0.002581423550059226,0.015071253201101947,-0.0560637625259099,0.998310013108642,0.27247247099876404,-0.34919753670692444,-0.43116235733032227,0.005627498030662537,-0.04368580877780914,-0.00011998414993286133
2025-09-20T02:19:35Z,0.02283457989852114,-0.001560313721212046,-0.12099689781644381,-0.1356707066297531,-0.24504345655441284,-0.9599725008010864,-8.838689815952439e-05,0.011443317692682621,-0.06046648277151365,0.9981046260315882,0.3041766881942749,-0.41027361154556274,-0.5481822490692139,0.0028982013463974,-0.045539021492004395,0.0017927289009094238
2025-09-20T02:19:35Z,0.014382805986151563,0.004577796070445548,-0.13267901378511845,-0.1409107893705368,-0.25273433327674866,-0.957219660282135,0.002760521242056036,0.007023774996594326,-0.06627254885615046,0.9977729823065947,0.3309645652770996,-0.44851550459861755,-0.6297910213470459,0.006004989147186279,-0.03296735882759094,-0.0027489066123962402
2025-09-20T02:19:35Z,0.005324540913659878,0.011227420201626018,-0.14585710969618879,-0.1462986171245575,-0.26109611988067627,-0.9541622400283813,0.0057927195047687684,0.002246115590429366,-0.07284761799747869,0.9973236798316093,0.34067779779434204,-0.47026485204696655,-0.6861648559570312,0.010209009051322937,-0.02163669466972351,-0.010738134384155273
2025-09-20T02:19:35Z,-0.004109502276412093,0.018048990932812044,-0.16031199951694403,-0.15165120363235474,-0.2697550356388092,-0.9509122371673584,0.008830861715596428,-0.0027706509476272474,-0.08008525181754514,0.9967449949902533,0.33278411626815796,-0.49078837037086487,-0.7421558499336243,0.010863423347473145,-0.014819622039794922,-0.018000781536102295
2025-09-20T02:19:35Z,-0.013321765363175645,0.024527651921737118,-0.17552462778940042,-0.15652203559875488,-0.27813151478767395,-0.9477044343948364,0.011632274397851567,-0.007709569949130696,-0.08772253902736148,0.9960471087779322,0.2985400855541229,-0.4671112895011902,-0.7786915302276611,0.0163649320602417,-0.0032518506050109863,-0.028357386589050293
2025-09-20T02:19:35Z,-0.022078226276760163,0.030317833328149288,-0.1912992661173801,-0.1607416272163391,-0.28586265444755554,-0.9446929097175598,0.014033994847383657,-0.012434761242226115,-0.09565363759051304,0.9952379564402105,0.25091227889060974,-0.44958800077438354,-0.7993823885917664,0.012409999966621399,0.007891684770584106,-0.026812851428985596
2025-09-20T02:19:35Z,-0.03041576772503215,0.03532768903998685,-0.20712145219662786,-0.16448448598384857,-0.2927875518798828,-0.9419237375259399,0.015994443419751172,-0.01694916992146806,-0.10361480296466812,0.9943444242552079,0.20705048739910126,-0.43453049659729004,-0.7849520444869995,0.008863434195518494,0.01756647229194641,-0.0242689847946167
2025-09-20T02:19:35Z,-0.0381646872017033,0.03961315293279323,-0.22249403578739402,-0.16772988438606262,-0.2988957166671753,-0.9394296407699585,0.017561337064222804,-0.021157851893481183,-0.11135128984664952,0.9934005949604147,0.16837573051452637,-0.40656527876853943,-0.7563790082931519,0.008996739983558655,0.017201602458953857,-0.026866555213928223
2025-09-20T02:19:35Z,-0.04519238183247463,0.043285751094363535,-0.23753737027780006,-0.17033348977565765,-0.3043155074119568,-0.9372185468673706,0.018806685187378103,-0.024993447992913292,-0.11891719642557617,0.9924112983512811,0.13809287548065186,-0.36865484714508057,-0.7583228349685669,0.01001216471195221,0.005149424076080322,-0.03087174892425537
2025-09-20T02:19:35Z,-0.05158708972282054,0.046541682192486174,-0.2523334094363439,-0.17236465215682983,-0.3092476725578308,-0.9352306127548218,0.01983169161060151,-0.028505748497370604,-0.12635169480740235,0.9913774118198595,0.12182244658470154,-0.3311067819595337,-0.7254452705383301,0.0065507590770721436,0.008285313844680786,-0.03181856870651245
2025-09-20T02:19:35Z,-0.05702702260692569,0.049578882605469,-0.2663013194883975,-0.1736830174922943,-0.3138127028942108,-0.9334644079208374,0.020773808290325078,-0.03153792822386929,-0.1333632536930841,0.990347357682854,0.107890285551548,-0.28298652172088623,-0.6837533712387085,0.007880821824073792,0.007282435894012451,-0.03267258405685425
2025-09-20T02:19:35Z,-0.061475000274614576,0.05245004418566073,-0.27993343192600373,-0.17413200438022614,-0.3181270956993103,-0.9319190979003906,0.02166727321829943,-0.03407816192260648,-0.1401943069887446,0.9893000855569619,0.10732680559158325,-0.24251997470855713,-0.6823529601097107,0.008727341890335083,-0.006902724504470825,-0.03344625234603882
2025-09-20T02:19:35Z,-0.06513637550455137,0.05549985887017922,-0.2932782046518308,-0.17389005422592163,-0.3225241005420685,-0.9304517507553101,0.022678031513893637,-0.036252547562188826,-0.1468742233481189,0.9882304290872036,0.11849236488342285,-0.19496408104896545,-0.6615644097328186,0.006395220756530762,-0.005981177091598511,-0.03299039602279663
2025-09-20T02:19:35Z,-0.06799393882815832,0.05887184573291578,-0.3058545224248467,-0.17307305335998535,-0.32708802819252014,-0.929009735584259,0.023895797201472536,-0.038059971843304084,-0.15316662704018244,0.9871779739757023,0.1381961703300476,-0.16379915177822113,-0.6110742092132568,0.000994354486465454,0.0036175549030303955,-0.02611851692199707
2025-09-20T02:19:35Z,-0.07002899677288572,0.06265819639772513,-0.31609644399693726,-0.17209383845329285,-0.3317452371120453,-0.9275391101837158,0.02540746359202792,-0.03948115409395657,-0.158300305903619,0.9862741091526975,0.14410945773124695,-0.14839793741703033,-0.5640901327133179,0.0019298791885375977,0.0028873085975646973,-0.02362227439880371
2025-09-20T02:19:35Z,-0.07202559677575365,0.06646509045266744,-0.32633311140658655,-0.17106208205223083,-0.33638736605644226,-0.9260568618774414,0.026918301470849983,-0.040901094972548936,-0.16342898737000347,0.9853392148211191,0.1500227451324463,-0.13299672305583954,-0.5171060562133789,0.0028128623962402344,0.002141982316970825,-0.021137595176696777
2025-09-20T02:19:35Z,-0.07398353493066406,0.07029219852008359,-0.3365647917880473,-0.16997791826725006,-0.3410138785839081,-0.9245631694793701,0.028428304498800083,-0.04231974180048614,-0.1685525086251497,0.9843733379559949,0.15593603253364563,-0.11759551614522934,-0.47012200951576233,0.003643408417701721,0.0013810396194458008,-0.01866436004638672
2025-09-20T02:19:35Z,-0.07562485093262399,0.07386921189696909,-0.3453863620173861,-0.16897889971733093,-0.3452341854572296,-0.923179030418396,0.029859388952230257,-0.04355643201461685,-0.1729713254990387,0.9835101262494946,0.1391499936580658,-0.10266231000423431,-0.4365074038505554,0.007950380444526672,0.006218612194061279,-0.017628848552703857
2025-09-20T02:19:35Z,-0.07697377899440773,0.07709430760132908,-0.35422390968582523,-0.16770237684249878,-0.3491017520427704,-0.9219565391540527,0.031132461751821477,-0.04463215157736235,-0.17738581917717652,0.9826357531843871,0.11774642765522003,-0.10156530886888504,-0.45916539430618286,0.008195698261260986,-0.00440216064453125,-0.01649487018585205
2025-09-20T02:19:35Z,-0.07838644497433143,0.07982009862251808,-0.36354099640069226,-0.1663540154695511,-0.35252371430397034,-0.9208981394767761,0.032134431219598004,-0.04571409730410497,-0.1820261516996474,0.9817046989934309,0.0892241895198822,-0.11653962731361389,-0.4803325831890106,0.003852054476737976,-0.004716455936431885,-0.010630488395690918
2025-09-20T02:19:35Z,-0.08013674696346251,0.08200562638822882,-0.3732295284992162,-0.16521690785884857,-0.355449914932251,-0.919977605342865,0.03282151061195086,-0.046928242703101045,-0.18684227214860893,0.9807194049802223,0.060855865478515625,-0.13932563364505768,-0.5075809359550476,0.0018422454595565796,-0.00664752721786499,-0.005972385406494141
2025-09-20T02:19:35Z,-0.08240189306367225,0.08390076894817942,-0.38354016463662943,-0.1643763929605484,-0.35813283920288086,-0.9190871715545654,0.03329071092155666,-0.04838513737462953,-0.19196328102299526,0.979643089765783,0.04307884722948074,-0.17526119947433472,-0.5221093893051147,-0.0028888285160064697,-0.003372699022293091,-0.0009855031967163086
2025-09-20T02:19:35Z,-0.08530589102920619,0.08550263686894485,-0.39384851285383027,-0.16411925852298737,-0.3605120778083801,-0.9182025194168091,0.03353911103542753,-0.05013202090636247,-0.19708456733026425,0.9785291994524405,0.0346430167555809,-0.20165115594863892,-0.5079196095466614,-0.0025343596935272217,0.0026631057262420654,-0.0033329129219055176
2025-09-20T02:19:35Z,-0.0885298581417874,0.08698712148373457,-0.4037256774068677,-0.16426725685596466,-0.3627161383628845,-0.9173076152801514,0.033691662771749294,-0.05201990815950663,-0.20199383318815506,0.9774237079935535,0.029566457495093346,-0.20498129725456238,-0.48696526885032654,0.0013585984706878662,0.0031481683254241943,-0.01018303632736206
2025-09-20T02:19:35Z,-0.09187081595780562,0.0883617484102864,-0.41321635459227096,-0.16462253034114838,-0.3647593557834625,-0.9164333343505859,0.03377083830971941,-0.053949624790028794,-0.20670999611702986,0.9763298456222815,0.02542482316493988,-0.20867159962654114,-0.4625681936740875,0.002488046884536743,0.0028053224086761475,-0.016520202159881592
2025-09-20T02:19:35Z,-0.09516583772966375,0.0896554061368481,-0.42234934693265086,-0.1650279462337494,-0.3666738271713257,-0.915596067905426,0.033807587427573255,-0.05584409780154937,-0.2112452009959166,0.9752507403985509,0.022129807621240616,-0.1974700391292572,-0.45692238211631775,0.006348207592964172,-0.003063976764678955,-0.023273348808288574
2025-09-20T02:19:35Z,-0.0982986934429607,0.09098402899466518,-0.4314007891273375,-0.1652965247631073,-0.368590384721756,-0.9147776961326599,0.03386444367483347,-0.05766303481373101,-0.2157344701389171,0.9741595639427346,0.026330720633268356,-0.20160356163978577,-0.44328394532203674,0.003355756402015686,0.00022026896476745605,-0.01704615354537964
2025-09-20T02:19:35Z,-0.10153775598185036,0.09229819133873197,-0.43996752728784805,-0.16579005122184753,-0.37043479084968567,-0.9139429926872253,0.033901035657098455,-0.05952521302467919,-0.21998526915241917,0.9730950467589934,0.022590581327676773,-0.19484078884124756,-0.4247722327709198,0.0037373602390289307,-0.0008421540260314941,-0.01627558469772339
2025-09-20T02:19:35Z,-0.10475815434911051,0.09362587126244148,-0.44851851789980407,-0.16626138985157013,-0.3722690939903259,-0.9131116271018982,0.03393125793657136,-0.06138057764338154,-0.22422460497130836,0.9720104606584112,0.02360595017671585,-0.22040434181690216,-0.43493756651878357,0.0016140192747116089,-0.008022546768188477,-0.009752452373504639
2025-09-20T02:19:35Z,-0.10822701788998958,0.09492168380420855,-0.45734434200186413,-0.16687390208244324,-0.3740708827972412,-0.9122631549835205,0.033893463594764625,-0.06335865949668823,-0.22859702553018102,0.9708657082953357,0.014890163205564022,-0.2038644403219223,-0.4527658224105835,0.009827852249145508,-0.0092850923538208,-0.018459081649780273
2025-09-20T02:19:35Z,-0.1113166291302044,0.09611501511047582,-0.4665469972015948,-0.16702872514724731,-0.375779390335083,-0.9115323424339294,0.033820808076645184,-0.06514804146975815,-0.2331391768326747,0.9696689558192216,0.006971330381929874,-0.20152507722377777,-0.4737201929092407,0.00929655134677887,-0.015224605798721313,-0.015073299407958984
2025-09-20T02:19:35Z,-0.11458520240171122,0.09731169604532004,-0.476520396582481,-0.16711856424808502,-0.3775138556957245,-0.9107989072799683,0.03368675219125943,-0.0670378017657624,-0.23805256294495608,0.9683501702692479,0.005043096840381622,-0.2137797772884369,-0.5212069153785706,0.003961518406867981,-0.021693289279937744,-0.009887456893920898
2025-09-20T02:19:35Z,-0.11794937470304573,0.09867407179499635,-0.4873503121235388,-0.16703453660011292,-0.37942251563072205,-0.9100208878517151,0.033573564413098805,-0.06900775156952148,-0.24337921466906515,0.966890491932172,0.007159870117902756,-0.24100062251091003,-0.5647729635238647,-0.0006490498781204224,-0.01923695206642151,-0.006706178188323975
2025-09-20T02:19:35Z,-0.12188516436214478,0.10007296660807519,-0.4989668503204163,-0.16723355650901794,-0.3813740313053131,-0.9091681838035583,0.0333583543657981,-0.07127149394200565,-0.24908850680456227,0.9652784089148811,-0.004216901026666164,-0.2651728689670563,-0.6042113304138184,0.00046341121196746826,-0.016016095876693726,-0.006609618663787842
2025-09-20T02:19:35Z,-0.1259951865113039,0.10137430594856646,-0.5116332373729763,-0.16728352010250092,-0.3832503855228424,-0.9083696007728577,0.03300978242053476,-0.07362366150201179,-0.2552951499337415,0.963490668721128,-0.019476627930998802,-0.2761484384536743,-0.658672571182251,0.003534451127052307,-0.021162748336791992,-0.009784221649169922
2025-09-20T02:19:35Z,-0.13033774243477603,0.10266938523049617,-0.5255183094162681,-0.1671835482120514,-0.3851323425769806,-0.9075917601585388,0.032552686479013576,-0.07610453138772334,-0.26208006482037505,0.9614897103858357,-0.0328795500099659,-0.29477572441101074,-0.7258513569831848,0.0016200840473175049,-0.025253891944885254,-0.008066117763519287
2025-09-20T02:19:35Z,-0.13492642846828395,0.10405802062015192,-0.540730545384683,-0.16690826416015625,-0.38710179924964905,-0.9068042039871216,0.0320220711671685,-0.07873352096358864,-0.26949376466662295,0.9592437778353432,-0.03443095460534096,-0.3225719630718231,-0.7864857912063599,-0.0012183189392089844,-0.021998733282089233,-0.0066977739334106445
2025-09-20T02:19:35Z,-0.13992258527847867,0.10565709845141133,-0.5569832975087565,-0.1666782945394516,-0.3892376720905304,-0.9059317708015442,0.03145504327351776,-0.08159774876071384,-0.2773996495369391,0.9567663178239642,-0.03120778314769268,-0.338392972946167,-0.8276907801628113,-0.0021459460258483887,-0.016204923391342163,-0.010777115821838379
2025-09-20T02:19:35Z,-0.14525786622456288,0.1074907429397688,-0.5737583097817391,-0.16657747328281403,-0.3915294408798218,-0.9049622416496277,0.03088484337011605,-0.08465939857493017,-0.28554569013625936,0.9541187080724833,-0.0317082405090332,-0.3482128977775574,-0.8294727802276611,-0.0003157705068588257,-0.009776175022125244,-0.013514101505279541
2025-09-20T02:19:35Z,-0.15056249161673613,0.10941312463898989,-0.5905266602950616,-0.16643130779266357,-0.3938197195529938,-0.9039948582649231,0.03031209862307817,-0.08771399183361861,-0.2936679996276875,0.9513918732038287,-0.032208699733018875,-0.35803282260894775,-0.831254780292511,0.0014691054821014404,-0.00334891676902771,-0.016249001026153564
2025-09-20T02:19:35Z,-0.15583508147363861,0.11142359063053678,-0.6072882094126153,-0.16623984277248383,-0.39610764384269714,-0.9030299186706543,0.029736811788826603,-0.09076128704657359,-0.3017659329807565,0.9485860014331812,-0.03270915523171425,-0.3678527772426605,-0.8330368399620056,0.0032086819410324097,0.0030759871006011963,-0.01898139715194702
2025-09-20T02:19:35Z,-0.16115231650860476,0.11332383582837681,-0.6237042937393051,-0.16618388891220093,-0.3982046842575073,-0.9021174907684326,0.029069048066700822,-0.09380326691172211,-0.30967404788163316,0.9457578447599707,-0.035025037825107574,-0.3475976884365082,-0.8021470904350281,0.0017604529857635498,0.013246297836303711,-0.02490973472595215
2025-09-20T02:19:35Z,-0.16616584024380626,0.11533013084180198,-0.6396445481985868,-0.1659751981496811,-0.40031227469444275,-0.9012227058410645,0.02847421038921505,-0.09670547017159345,-0.31733288110016244,0.9429406596666423,-0.027135197073221207,-0.33377134799957275,-0.7881158590316772,0.0013942420482635498,0.013173490762710571,-0.024664878845214844
2025-09-20T02:19:35Z,-0.17119000259852615,0.11742118313951036,-0.654809352857015,-0.16598618030548096,-0.4024142324924469,-0.9002840518951416,0.027911314696377712,-0.09961042096203843,-0.3246071164696513,0.9401749424915126,-0.017806358635425568,-0.3416156470775604,-0.7312983274459839,-0.0006509274244308472,0.022877275943756104,-0.016203761100769043
2025-09-20T02:19:35Z,-0.17576191087888277,0.11902120753033162,-0.6682622331339966,-0.1661115139722824,-0.4039882719516754,-0.8995556831359863,0.027237014970191268,-0.10219677846874924,-0.3310359366165416,0.9376722078387975,-0.03134503215551376,-0.3148645758628845,-0.6804243326187134,0.0017955303192138672,0.028429299592971802,-0.023506581783294678
2025-09-20T02:19:36Z,-0.18031261347198338,0.12068213529333775,-0.6817102701307244,-0.16621120274066925,-0.4055643081665039,-0.8988277912139893,0.026561217712648418,-0.10477753516236937,-0.33744664507598454,0.9351181540801274,-0.04488370940089226,-0.2881135046482086,-0.6295503377914429,0.004216313362121582,0.03398334980010986,-0.030808985233306885
2025-09-20T02:19:36Z,-0.18484137280142868,0.12240366861170714,-0.6951532919455023,-0.16628526151180267,-0.4071420729160309,-0.8981005549430847,0.025883968504141635,-0.10735257057030592,-0.34383886057916757,0.9325129379328572,-0.05842238664627075,-0.2613624334335327,-0.5786764025688171,0.006611451506614685,0.039539068937301636,-0.03811079263687134
2025-09-20T02:19:36Z,-0.1882307461294988,0.12323691498802625,-0.7062045826778591,-0.1660895049571991,-0.40786758065223694,-0.8978075385093689,0.025088210705280382,-0.10921178909289725,-0.3490565535875159,0.9303778337645704,-0.05877358466386795,-0.21606585383415222,-0.5090872645378113,0.008096307516098022,0.03948250412940979,-0.03662729263305664
2025-09-20T02:19:36Z,-0.19102276274132057,0.12392696933610156,-0.7156862325847684,-0.1658203899860382,-0.40843889117240906,-0.8975974917411804,0.024398509556773106,-0.11074405174607344,-0.3535206700458963,0.9285276306297818,-0.04613308608531952,-0.18960459530353546,-0.43099892139434814,0.006718799471855164,0.03614538908004761,-0.03359276056289673
2025-09-20T02:19:36Z,-0.19346950414497857,0.12464228229579702,-0.7237895288915681,-0.16563598811626434,-0.40902093052864075,-0.897366464138031,0.023845554435426238,-0.11209987095250444,-0.3573332742333055,0.9269184955812091,-0.0282859206199646,-0.15844951570034027,-0.3649604320526123,0.011531472206115723,0.033183544874191284,-0.031323373317718506
2025-09-20T02:19:36Z,-0.19519638282074292,0.12529863964999544,-0.7306277252881316,-0.1651737540960312,-0.4095452129840851,-0.897212564945221,0.02345603832115911,-0.11309457105486531,-0.360543053211226,0.9255636627830415,-0.021732212975621223,-0.12545575201511383,-0.3001190423965454,0.012308582663536072,0.03226417303085327,-0.030370235443115234
2025-09-20T02:19:36Z,-0.19678015369716512,0.1259367270085276,-0.7362032454264434,-0.16494686901569366,-0.41005638241767883,-0.8970207571983337,0.02314946281863846,-0.11400382191364547,-0.36316213003879183,0.924435172459124,-0.0155899403616786,-0.09518717229366302,-0.2563876807689667,0.011116594076156616,0.02494412660598755,-0.030137717723846436
2025-09-20T02:19:36Z,-0.19803683097950656,0.1263860015364565,-0.7408378167336209,-0.16471149027347565,-0.4104003310203552,-0.8969067335128784,0.0228641495425142,-0.11471692387005607,-0.3653332056145793,0.9234981064177005,-0.02104003168642521,-0.08123114705085754,-0.21018877625465393,0.010659843683242798,0.027329325675964355,-0.027405500411987305
2025-09-20T02:19:36Z,-0.19901985640937256,0.1265670742580317,-0.7446401252192706,-0.16449089348316193,-0.41050687432289124,-0.8968984484672546,0.02254953940799108,-0.11524591300991885,-0.3671056250373295,0.9227368346400299,-0.02790125273168087,-0.062170322984457016,-0.164145827293396,0.011757656931877136,0.025944292545318604,-0.028419852256774902
2025-09-20T02:19:36Z,-0.19964535185364046,0.12659382148181206,-0.7477944970536613,-0.16414785385131836,-0.41047948598861694,-0.8969738483428955,0.022264872316071768,-0.11557450560652612,-0.36856840842864075,0.9221193044105708,-0.021486639976501465,-0.056080546230077744,-0.1354154795408249,0.004743993282318115,0.019864648580551147,-0.025070130825042725
2025-09-20T02:19:36Z,-0.20064994082121476,0.12673872154133525,-0.7504054536685559,-0.1642908900976181,-0.4105665683746338,-0.8969078063964844,0.021995340406384605,-0.11609232985314256,-0.3697880307479308,0.9215722668131421,-0.012520208023488522,-0.07316191494464874,-0.1195819079875946,0.002718821167945862,0.016304612159729004,-0.02066934108734131
2025-09-20T02:19:36Z,-0.2018150974618266,0.12682246799523827,-0.7525980323640975,-0.1647026389837265,-0.4106035828590393,-0.896815299987793,0.021690799601681104,-0.11666803489309283,-0.3708137397047748,0.9210945174785066,-0.012129503302276134,-0.07198688387870789,-0.09928087890148163,0.008901789784431458,0.018076956272125244,-0.020050764083862305
2025-09-20T02:19:36Z,-0.20269156785118161,0.12687618777501516,-0.7546592826664016,-0.16489563882350922,-0.4106143116950989,-0.89677494764328,0.021432482233167814,-0.11710346838963459,-0.371774155366491,0.9206580801709746,-0.014941521920263767,-0.05130922049283981,-0.09233032166957855,0.01267126202583313,0.014385819435119629,-0.023960232734680176
2025-09-20T02:19:36Z,-0.2033783909895554,0.1268750051344782,-0.7563529980252848,-0.1650281697511673,-0.41058090329170227,-0.8967658877372742,0.021204817048993546,-0.11743741298006997,-0.37256095067610123,0.9203026915987554,-0.010344140231609344,-0.04910014197230339,-0.06665752083063126,0.009289354085922241,0.017190486192703247,-0.01793569326400757
2025-09-20T02:19:36Z,-0.20428606001036023,0.12690355003848733,-0.7573503448701123,-0.16555511951446533,-0.41058751940727234,-0.8966656923294067,0.02099016233402258,-0.11787068849569877,-0.3730303985071097,0.9200620713251788,-0.004756568465381861,-0.050528526306152344,-0.0317888967692852,0.008317053318023682,0.01738777756690979,-0.01809936761856079
2025-09-20T02:19:36Z,-0.20523950950412362,0.12688077254013397,-0.7578043704126644,-0.16628234088420868,-0.4105577766895294,-0.8965447545051575,0.020774934262552367,-0.11830990635713853,-0.37324840419788924,0.9199221024114832,-0.0014970256015658379,-0.042191281914711,-0.01726614311337471,0.009284690022468567,0.009232908487319946,-0.022214889526367188
2025-09-20T02:19:36Z,-0.20598091435963356,0.12694078471086856,-0.7582801625135004,-0.16680625081062317,-0.41060301661491394,-0.8964266777038574,0.020636084629128835,-0.11866666679082996,-0.37347706860648006,0.9197864422918578,0.000702662393450737,-0.036208637058734894,-0.027741355821490288,0.007544681429862976,0.001375645399093628,-0.027233898639678955
2025-09-20T02:19:36Z,-0.206560085191099,0.12705139130662757,-0.7587095736853089,-0.16719363629817963,-0.41069528460502625,-0.8963122367858887,0.020553521920141236,-0.11895741908086574,-0.3736844933746673,0.919666461066431,0.0011075185611844063,-0.03153075650334358,-0.013322504237294197,0.0026596039533615112,0.010929226875305176,-0.02647686004638672
2025-09-20T02:19:36Z,-0.20727739956914512,0.12695267208401795,-0.7585983233229919,-0.16787658631801605,-0.4106074869632721,-0.8962247967720032,0.020380496486949735,-0.11926828277608599,-0.37363711210980777,0.9196492757500389,-0.0014840527437627316,-0.0318576917052269,0.02192949689924717,0.0035715252161026,0.018273979425430298,-0.022459030151367188
2025-09-20T02:19:36Z,-0.20759308619131844,0.12677983709416107,-0.7579534801207252,-0.16835801303386688,-0.4104628562927246,-0.8962007761001587,0.020280126063006866,-0.11937565716826154,-0.3733374728728343,0.9197593924430366,-1.3042008504271507e-06,0.00469907745718956,0.03618335723876953,0.013967946171760559,0.009010106325149536,-0.030918776988983154
2025-09-20T02:19:36Z,-0.20728141510751596,0.1266723118963134,-0.7570873203400764,-0.1683347523212433,-0.41038188338279724,-0.8962422609329224,0.020340222719421684,-0.11920410722363692,-0.37293202359611627,0.9199448034661859,0.007141576614230871,0.029748262837529182,0.04607951641082764,0.01136036217212677,0.0070046186447143555,-0.026730716228485107
2025-09-20T02:19:36Z,-0.20688096944866288,0.1267129931304021,-0.7558716709520333,-0.16831907629966736,-0.4104424715042114,-0.896217405796051,0.020506040591656692,-0.11901482028760538,-0.3723701979571955,0.9201930736774181,0.0153940599411726,0.027046527713537216,0.07171230018138885,0.005256477743387222,0.014428568072617054,-0.019815580919384956
2025-09-20T02:19:36Z,-0.206733419604444,0.12638781153097886,-0.7534758338168835,-0.16889767348766327,-0.41019120812416077,-0.8962236046791077,0.020525518862584094,-0.11886385218714013,-0.3712542684494078,0.9206629932025351,0.008065853267908096,0.026814285665750504,0.1158328652381897,0.007250487804412842,0.020213603973388672,-0.02163851261138916
2025-09-20T02:19:36Z,-0.20631298900347098,0.1254433780226299,-0.7496232226734009,-0.1696995347738266,-0.4093990623950958,-0.8964343070983887,0.02039476790570787,-0.11846163011223595,-0.36944138463553494,0.9214466823087047,-0.00291505828499794,0.04651225730776787,0.18673110008239746,0.008368238806724548,0.02825590968132019,-0.023936748504638672
2025-09-20T02:19:36Z,-0.2058889437514336,0.12450057944276742,-0.7457706828713632,-0.1704980731010437,-0.4086037874221802,-0.8966456055641174,0.02026394366597785,-0.11805892635465384,-0.3676269968972274,0.9222266271678504,-0.013895969837903976,0.06621023267507553,0.2576293349266052,0.009482696652412415,0.03629511594772339,-0.02623438835144043
2025-09-20T02:19:36Z,-0.2049922120258149,0.12295965967856924,-0.740104844892615,-0.17144037783145905,-0.4072847068309784,-0.8970659971237183,0.020047036761907812,-0.11731496670718454,-0.364947450178153,0.9233897976433662,-0.02158530429005623,0.10079406201839447,0.35380399227142334,0.010605499148368835,0.04506176710128784,-0.03185391426086426
2025-09-20T02:19:36Z,-0.20359261656554387,0.12075387256569108,-0.7319393012922276,-0.1727004051208496,-0.40537938475608826,-0.8976871371269226,0.01975351683878606,-0.11619935625624378,-0.36107942028003254,0.9250563407102801,-0.023529496043920517,0.14100900292396545,0.5060878992080688,0.008280381560325623,0.06470140814781189,-0.03600943088531494
2025-09-20T02:19:36Z,-0.20175282670672284,0.11779474004351718,-0.7200441086321201,-0.17469258606433868,-0.4027983546257019,-0.8984631299972534,0.01939299919465775,-0.11471749308387737,-0.3554439608621587,0.927428404423956,-0.02630484104156494,0.19650696218013763,0.7218723297119141,0.010233774781227112,0.08953416347503662,-0.04379391670227051
2025-09-20T02:19:36Z,-0.19860325554747257,0.11391553566504216,-0.7038584420833018,-0.17680783569812775,-0.39934980869293213,-0.8995881080627441,0.019056077712223268,-0.11243792812295149,-0.3477527594941249,0.9306248877276088,-0.03141716495156288,0.31300175189971924,0.9315457940101624,0.021806582808494568,0.09110799431800842,-0.06393516063690186
2025-09-20T02:19:36Z,-0.19320639424994082,0.10925849487913009,-0.6837070980084842,-0.17809101939201355,-0.3951001763343811,-0.9012100100517273,0.01891658839553494,-0.10895531311866545,-0.33813495185862574,0.9345778249467808,-0.02903439663350582,0.4519135355949402,1.119494915008545,0.02199147641658783,0.08335989713668823,-0.07211017608642578
2025-09-20T02:19:36Z,-0.18551447611306573,0.10427170479458117,-0.6598312465885603,-0.17838197946548462,-0.390390008687973,-0.9032029509544373,0.019123778748569763,-0.1043198287882313,-0.32669877140109327,0.9391589813012005,-0.009234676137566566,0.5612057447433472,1.3060743808746338,0.008097171783447266,0.08006218075752258,-0.06434077024459839
2025-09-20T02:19:36Z,-0.1764041288676798,0.09934387669994285,-0.6320114176487758,-0.17849332094192505,-0.3854946196079254,-0.9052811861038208,0.01966804653336745,-0.09899309648766884,-0.31333978119869227,0.944262546305133,0.02007460966706276,0.6313849091529846,1.5072505474090576,-0.007185637950897217,0.08098840713500977,-0.05389302968978882
2025-09-20T02:19:36Z,-0.16596142459808363,0.09437913017732877,-0.6001576383458985,-0.17852158844470978,-0.380227655172348,-0.9075003862380981,0.02043570973655122,-0.0929893518243904,-0.2979856278308123,0.9498104021827974,0.03233654797077179,0.721682071685791,1.7007735967636108,-0.010771051049232483,0.07795843482017517,-0.05309957265853882
