timestamp,attitude_roll,attitude_pitch,attitude_yaw,gravity_x,gravity_y,gravity_z,quaternion_x,quaternion_y,quaternion_z,quaternion_w,rotation_rate_x,rotation_rate_y,rotation_rate_z,user_acceleration_x,user_acceleration_y,user_acceleration_z
2025-09-16T01:57:37Z,-0.1640065875162722,0.3077352990042634,-0.24903699910983582,-0.15560214221477509,-0.30290114879608154,-0.9402334094047546,0.14151062719670557,-0.0992876174053333,-0.13477391196155078,0.9756805882935674,-0.0058248043060302734,-0.003883101511746645,0.002097361022606492,-0.00032320115133188665,-0.000621020095422864,0.000680844415910542
2025-09-16T01:57:37Z,-0.16401249827723224,0.30772534183239697,-0.24912003204108923,-0.1556081920862198,-0.30289167165756226,-0.9402354955673218,0.1415012300295844,-0.09929582460407647,-0.13481452674519684,0.9756755348352446,-0.00300204218365252,-0.0010686216410249472,-0.00265426910482347,0.0005697757005691528,-0.0011044740676879883,-0.0007793307304382324
2025-09-16T01:57:37Z,-0.16401838272238067,0.30771536648666437,-0.24920305137404278,-0.1556142121553421,-0.3028821647167206,-0.9402375221252441,0.1414918328710243,-0.09930402435224457,-0.13485514146035923,0.9756704217723197,-0.00017928052693605423,0.001745857996866107,-0.007405898533761501,0.0014627426862716675,-0.001587986946105957,-0.0022396445274353027
2025-09-16T01:57:37Z,-0.16402428420261772,0.3077053948636347,-0.2492860693057901,-0.1556202620267868,-0.3028726577758789,-0.9402396082878113,0.1414824357039037,-0.09931223155098794,-0.13489575617552155,0.9756653087093947,0.0026434813626110554,0.004560338333249092,-0.012157528661191463,0.0023556798696517944,-0.002071470022201538,-0.0036998391151428223
2025-09-16T01:57:37Z,-0.16390385092299492,0.30778694880661506,-0.24948282003312444,-0.15550298988819122,-0.302950382232666,-0.9402339458465576,0.14152070356120416,-0.09927188589854576,-0.13498571350328525,0.9756514366703121,0.005166166462004185,0.007273774594068527,-0.01472490094602108,0.0018766224384307861,-0.00141105055809021,-0.0027306675910949707
2025-09-16T01:57:37Z,-0.16378338870922335,0.30786845479172137,-0.24967959503681028,-0.15538570284843445,-0.30302804708480835,-0.9402283430099487,0.14155895652591452,-0.09923153277840734,-0.135075670831049,0.9756375646312292,0.007688852027058601,0.009987210854887962,-0.01729227416217327,0.001397550106048584,-0.0007506608963012695,-0.0017614960670471191
2025-09-16T01:57:37Z,-0.163493865259523,0.3083605363708279,-0.2503075921082425,-0.15508918464183807,-0.30349695682525635,-0.9401260018348694,0.1417882015742635,-0.09916194694122593,-0.1353765367398281,0.975569567635289,0.01716490462422371,-0.0038644936867058277,-0.02270755171775818,-0.0004289001226425171,-0.000590205192565918,0.0013625025749206543
2025-09-16T01:57:37Z,-0.16349365054720702,0.30861902052432405,-0.250552461224581,-0.15507620573043823,-0.30374324321746826,-0.9400486350059509,0.141902561607471,-0.09919349745593257,-0.1355038390331467,0.9755320492353912,0.019444545730948448,-0.01103261113166809,-0.0193629190325737,0.00012028217315673828,0.0010560452938079834,0.0013647675514221191
2025-09-16T01:57:37Z,-0.16353549402161568,0.30892707996059293,-0.2507740182944591,-0.15510030090808868,-0.3040367364883423,-0.9399497509002686,0.1420394720670235,-0.09924667312652408,-0.13562425179001109,0.9754900087958857,0.020109666511416435,-0.014441034756600857,-0.019591469317674637,0.0006352066993713379,0.0006748437881469727,0.0010662078857421875
2025-09-16T01:57:37Z,-0.1638068404263955,0.3095674699089778,-0.2513263521653947,-0.1553235650062561,-0.304646760225296,-0.9397153258323669,0.14230694856763312,-0.0994537490895581,-0.13593242383198959,0.9753870750636874,0.01497479248791933,-0.013779651373624802,-0.019467458128929138,0.0002602487802505493,0.0006049573421478271,-0.0006541609764099121
2025-09-16T01:57:37Z,-0.16385237763952037,0.30976980715668395,-0.25161620728836104,-0.155356302857399,-0.30483946204185486,-0.9396474361419678,0.14238842565984164,-0.09950780729360383,-0.13608317957717492,0.9753486952507583,0.010161848738789558,-0.013100684620440006,-0.02113288827240467,-0.0005293786525726318,0.0004035830497741699,-0.000319063663482666
2025-09-16T01:57:37Z,-0.1639721230716154,0.31007970308499716,-0.2522535794228407,-0.1554533839225769,-0.3051345944404602,-0.9395356178283691,0.1425001497030683,-0.09962882140769028,-0.13641196270665779,0.9752741096634138,0.003907080739736557,-0.013571430929005146,-0.015510217286646366,-0.0023790746927261353,-0.00034296512603759766,0.0010507702827453613
2025-09-16T01:57:37Z,-0.16405083689248634,0.31015407107838866,-0.25244899552520333,-0.1555236279964447,-0.30520540475845337,-0.9395009875297546,0.14252142332211995,-0.09968526913248399,-0.1365151265335379,0.9752508049110574,0.0023575134109705687,-0.014723457396030426,-0.015690641477704048,-0.002128511667251587,0.0004080533981323242,0.001051783561706543
2025-09-16T01:57:37Z,-0.16423076622416316,0.31021372914415224,-0.25293970213860484,-0.15568970143795013,-0.3052622377872467,-0.939454972743988,0.14251385771423292,-0.09981131689190165,-0.13676906240423622,0.9752033062400792,-0.0010635624639689922,-0.00900533888489008,-0.020440544933080673,7.872283458709717e-05,-0.0016179680824279785,0.0013630390167236328
2025-09-16T01:57:37Z,-0.16422459030984227,0.3101953062023815,-0.25318324485759436,-0.15568481385707855,-0.30524468421936035,-0.9394615292549133,0.14249310000632326,-0.09982461468932631,-0.13688679451714245,0.9751885678227405,-0.004543514922261238,-0.005398422479629517,-0.02037140727043152,-0.0004971623420715332,-0.0018328726291656494,0.0008935928344726562
2025-09-16T01:57:37Z,-0.16411444485201784,0.31005174199852953,-0.2540319139832935,-0.15558849275112152,-0.3051079511642456,-0.939521849155426,0.1423880631477973,-0.09982331681694487,-0.13728837865855295,0.9751475752316198,-0.012693310156464577,-0.0032505381386727095,-0.025799185037612915,2.9072165489196777e-05,-0.00012826919555664062,-0.0009273290634155273
2025-09-16T01:57:37Z,-0.16400379706189167,0.3098833596960396,-0.25461651705834387,-0.15549291670322418,-0.3049476146697998,-0.9395897388458252,0.1422841227307375,-0.09980151619280771,-0.1375604201697346,0.975126639444123,-0.011213893070816994,-0.004371603485196829,-0.026119455695152283,-0.0004431009292602539,-0.0002861618995666504,0.0002148151397705078
2025-09-16T01:57:37Z,-0.16389325937827778,0.3097148961921061,-0.25520102030569697,-0.1553974449634552,-0.30478715896606445,-0.9396576285362244,0.1421801674210889,-0.09977970810097445,-0.13783243174164764,0.9751055844816637,-0.009734475053846836,-0.0054926685988903046,-0.02643972635269165,-0.0009151995182037354,-0.00044414401054382324,0.0013570189476013184
2025-09-16T01:57:37Z,-0.16378283810315758,0.30954634508041334,-0.2557855047767433,-0.15530206263065338,-0.30462661385536194,-0.9397254586219788,0.1420761823177002,-0.09975789252432421,-0.13810444324507698,0.9750844699146018,-0.008255057036876678,-0.00661373371258378,-0.026759998872876167,-0.0013871639966964722,-0.0006021857261657715,0.0024991631507873535
2025-09-16T01:57:37Z,-0.16367252770672341,0.3093777674255412,-0.25636996902881026,-0.15520675480365753,-0.3044660687446594,-0.9397932291030884,0.14197219722287258,-0.09973606949709889,-0.1383764546800226,0.9750632957429378,-0.0067756399512290955,-0.007734798826277256,-0.027080269530415535,-0.0018590539693832397,-0.0007602572441101074,0.0036412477493286133
2025-09-16T01:57:37Z,-0.16369199814057797,0.3092812308435521,-0.2567365545977532,-0.155229851603508,-0.304374098777771,-0.9398191571235657,0.14190534587058534,-0.0997661005032611,-0.13855363813730973,0.9750447935273335,-0.0067779310047626495,-0.006183764897286892,-0.022497419267892838,-0.002240881323814392,0.00014930963516235352,0.0005462765693664551
2025-09-16T01:57:37Z,-0.1628625961671753,0.309420372062808,-0.257799396717362,-0.15444344282150269,-0.3045066297054291,-0.9399058222770691,0.14197803004941276,-0.09944511595552144,-0.13901711851148005,0.975000988004838,-0.0004193845670670271,0.02509792149066925,-0.026136599481105804,0.0009385496377944946,-0.005872070789337158,-0.006765782833099365
2025-09-16T01:57:37Z,-0.16194959998171465,0.30962735615586406,-0.2584353290931014,-0.1535750776529312,-0.3047037720680237,-0.9399842023849487,0.1421112155838525,-0.09905701899381061,-0.13926845345425115,0.9749853212215593,0.0036044202279299498,0.04343559592962265,-0.03833073005080223,0.0018718540668487549,-0.004730701446533203,-0.003880321979522705
2025-09-16T01:57:37Z,-0.16090147189036422,0.30976491875822243,-0.2592393529966176,-0.152583047747612,-0.3048348128795624,-0.94010329246521,0.14221183397624423,-0.09861111277725394,-0.1395899731589686,0.9749698718211809,-0.004557750187814236,0.03997237607836723,-0.040208470076322556,0.0006295740604400635,-0.00011456012725830078,8.344650268554688e-05
2025-09-16T01:57:37Z,-0.1599706517995989,0.3097712209112501,-0.26012174779862374,-0.15170761942863464,-0.3048408031463623,-0.9402430057525635,0.14223654192506716,-0.09822046228867021,-0.1399541091947038,0.9749535389899356,-0.011900383979082108,0.027703311294317245,-0.04091846942901611,-0.0009984076023101807,0.0014505088329315186,0.005057334899902344
2025-09-16T01:57:37Z,-0.15941092397531434,0.3096797919326469,-0.2609532246547698,-0.15118573606014252,-0.30475372076034546,-0.9403553009033203,0.14219025721459638,-0.09800144386684675,-0.1403169705496823,0.9749301742707722,-0.012354878708720207,0.008838199079036713,-0.03374700993299484,-0.0005322098731994629,0.0026438534259796143,0.007421731948852539
2025-09-16T01:57:37Z,-0.15921671940105325,0.3096392195272898,-0.2616544071563561,-0.1510050743818283,-0.304715096950531,-0.9403968453407288,0.14214970573219668,-0.09795426487637753,-0.14064378585457785,0.9748937379381536,-0.0064649381674826145,-0.004377374425530434,-0.028530169278383255,0.0008345097303390503,0.0030706822872161865,0.005538225173950195
2025-09-16T01:57:37Z,-0.15916561807715074,0.30970466864084367,-0.2621791848901455,-0.15095385909080505,-0.3047774136066437,-0.9403848648071289,0.14215961128758034,-0.09797047383213876,-0.14089784976999734,0.9748539281237102,-0.00044439220800995827,-0.009136081673204899,-0.020126454532146454,0.0004614889621734619,0.0023112893104553223,0.002896726131439209
2025-09-16T01:57:37Z,-0.15921541038542478,0.30982096649899227,-0.26251585858009346,-0.15099506080150604,-0.30488818883895874,-0.9403423070907593,0.14219647321354043,-0.09802545680164562,-0.1410688444962107,0.9748183264764244,0.005802796687930822,-0.003078324254602194,-0.013471215963363647,0.0013354718685150146,0.0029122233390808105,-0.0018732547760009766
2025-09-16T01:57:37Z,-0.15919232156046662,0.31002351468677164,-0.2627089779732044,-0.15096354484558105,-0.3050810694694519,-0.9402848482131958,0.14228768174090037,-0.09803976241353236,-0.14116717384498512,0.9747893648345841,0.005157483741641045,0.00020930939354002476,-0.004860411398112774,0.0013449490070343018,0.004230111837387085,-0.0041817426681518555
2025-09-16T01:57:37Z,-0.15909101629635933,0.31011489387231855,-0.26276744352215825,-0.1508638709783554,-0.305168092250824,-0.9402725696563721,0.14233666298627437,-0.09799989845662763,-0.14119111232427262,0.9747826616061388,0.002429991727694869,0.005167994648218155,0.0019271541386842728,0.001795157790184021,0.0038482844829559326,-0.0041084885597229
2025-09-16T01:57:37Z,-0.15900029626568957,0.3100341921482777,-0.2626000549812023,-0.15078246593475342,-0.3050912618637085,-0.9403105974197388,0.14231180323202114,-0.09793905821697692,-0.14110074803787295,0.974805474814744,-8.115801028907299e-05,0.0053075454197824,0.0037695555947721004,0.002639591693878174,0.0013357102870941162,-0.002950608730316162
2025-09-16T01:57:37Z,-0.15890953180651565,0.3099535698641898,-0.2624326731681858,-0.15070101618766785,-0.3050144612789154,-0.9403485655784607,0.14228697329718995,-0.09787820311041756,-0.14101038375147346,0.9748282880233496,-0.0025923075154423714,0.005447096191346645,0.005611957050859928,0.003483980894088745,-0.0011767148971557617,-0.0017927289009094238
2025-09-16T01:57:37Z,-0.15881469162600304,0.30987058193141054,-0.26229298778797816,-0.1506158411502838,-0.30493542551994324,-0.9403878450393677,0.14225990836095956,-0.0978171964243437,-0.14093316049927293,0.9748495364116098,0.002086810301989317,0.0048272074200212955,0.0015970165841281414,0.0034012943506240845,-0.003900200128555298,0.0006709098815917969
2025-09-16T01:57:37Z,-0.15864297088506177,0.30993253190874703,-0.262331705503201,-0.15045136213302612,-0.3049944341182709,-0.9403949975967407,0.1423004091902353,-0.0977398611816164,-0.14094159530467668,0.9748501823719283,0.006455323193222284,0.002498831134289503,-0.0040743304416537285,0.0022528916597366333,-0.002526700496673584,0.0025836825370788574
2025-09-16T01:57:37Z,-0.15865926168875696,0.30997791328214147,-0.2624153523308147,-0.1504645049571991,-0.30503764748573303,-0.9403789043426514,0.14231736262211173,-0.09775639860819378,-0.14098482659576855,0.9748398210910064,0.005753545090556145,-0.007423898670822382,-0.00418403185904026,0.0011785775423049927,0.0008315443992614746,0.004364609718322754
2025-09-16T01:57:37Z,-0.15883445035944108,0.3101120399600711,-0.262548933982302,-0.15062277019023895,-0.3051653802394867,-0.9403121471405029,0.14236406407389213,-0.09785912133031945,-0.14106625810731438,0.9748109384687624,0.0048926896415650845,-0.014002005569636822,-0.008356589823961258,0.0022942572832107544,7.966160774230957e-05,0.0029587149620056152
2025-09-16T01:57:37Z,-0.15906326760357167,0.3103006215451051,-0.26271942696105516,-0.15082880854606628,-0.30534496903419495,-0.9402207732200623,0.14243178416980606,-0.09799379395963106,-0.14117107333060985,0.9747723730213969,0.004339444916695356,-0.017679575830698013,-0.011435163207352161,0.0033300071954727173,-0.0009083151817321777,0.0011842846870422363
2025-09-16T01:57:37Z,-0.15926684780607014,0.31057509109051007,-0.26298473966386593,-0.15100692212581635,-0.30560630559921265,-0.9401072859764099,0.1425386204107917,-0.09812796763989966,-0.1413228127281846,0.9747211770723933,0.01158467773348093,-0.015494341030716896,-0.01225897017866373,0.003534480929374695,-2.205371856689453e-05,-0.0014314055442810059
2025-09-16T01:57:38Z,-0.15949274176328562,0.3109683872831642,-0.2632130647590787,-0.15120017528533936,-0.30598077178001404,-0.939954400062561,0.1427037474676739,-0.09827734043267584,-0.14146154894024757,0.9746618302229567,0.022096548229455948,-0.012362523004412651,-0.012303631752729416,0.0030057579278945923,-0.001276940107345581,-0.001543581485748291
2025-09-16T01:57:38Z,-0.15961385526467192,0.31153321474870954,-0.2633349108490601,-0.1512865275144577,-0.30651846528053284,-0.9397652745246887,0.14296535583827208,-0.09837811215338038,-0.1415458942414959,0.9746010557506614,0.030701417475938797,-0.010324320755898952,-0.008253462612628937,0.0025158822536468506,-0.0003497302532196045,-0.0016875267028808594
2025-09-16T01:57:38Z,-0.15976596243152993,0.31220148305900347,-0.2633956310044417,-0.15139684081077576,-0.30715450644493103,-0.9395398497581482,0.14327832414927547,-0.09849567689892154,-0.14160567580372102,0.9745345278478063,0.033345144242048264,-0.011141497641801834,-0.003935701213777065,0.0033539235591888428,0.0012127459049224854,-4.595518112182617e-05
2025-09-16T01:57:38Z,-0.160035143418634,0.3129170401767978,-0.26334485412632325,-0.15161468088626862,-0.3078353703022003,-0.9392818212509155,0.14361158794538822,-0.09866503907881366,-0.14162093053619867,0.974466143755401,0.03543119132518768,-0.01625412330031395,-0.002433551475405693,0.0024394094944000244,0.00029787421226501465,-0.00029212236404418945
2025-09-16T01:57:38Z,-0.16036017088267407,0.3136080050953428,-0.26329156331660525,-0.1518859714269638,-0.3084927201271057,-0.9390223026275635,0.1439289824475025,-0.09885994598293524,-0.14163834511340426,0.9743970419251616,0.03143446892499924,-0.015978645533323288,-0.0007094647735357285,0.0019747167825698853,-0.0003936588764190674,0.0001672506332397461
2025-09-16T01:57:38Z,-0.16072371330798005,0.3141550641083512,-0.26323615465232836,-0.15220029652118683,-0.3090130388736725,-0.9388002753257751,0.1441733942446578,-0.09906501358677428,-0.14165341674528042,0.9743378967679247,0.028248019516468048,-0.01849268563091755,-0.001576949143782258,0.001254051923751831,0.0001983940601348877,0.0006783008575439453
2025-09-16T01:57:38Z,-0.16111183606629206,0.31470083609044075,-0.2632051148213412,-0.15253758430480957,-0.3095320761203766,-0.9385745525360107,0.14441421411713026,-0.09928369673332904,-0.1416821791786626,0.9742758152510481,0.028215225785970688,-0.021553628146648407,-0.001549388631246984,0.000835910439491272,-0.0001334846019744873,0.0013188719749450684
2025-09-16T01:57:38Z,-0.1615751686120087,0.315239528194807,-0.26314322146942887,-0.1529455929994583,-0.3100442588329315,-0.9383390545845032,0.14464776790445308,-0.09953633874881017,-0.14170123966149767,0.9742126123924976,0.02739570662379265,-0.02312588319182396,0.0015730744926258922,0.0007362514734268188,-0.00021255016326904297,0.0014715194702148438
2025-09-16T01:57:38Z,-0.16210332710132502,0.31576921501266897,-0.26292665943101007,-0.15341463685035706,-0.310547798871994,-0.9380959272384644,0.1448800323489582,-0.09980877548680427,-0.1416494993959821,0.9741577759323945,0.02652551792562008,-0.02057114988565445,0.006582440808415413,0.0004177391529083252,-0.00012040138244628906,0.0008351802825927734
2025-09-16T01:57:38Z,-0.16263170375248662,0.3162987289393977,-0.26270975926172174,-0.15388363599777222,-0.3110511004924774,-0.9378523826599121,0.1451122520985739,-0.10008120472286068,-0.1415977440238647,0.9741027606756054,0.02565532736480236,-0.01801641471683979,0.011591807007789612,9.91523265838623e-05,-2.855062484741211e-05,0.0001983046531677246
2025-09-16T01:57:38Z,-0.16308172824139008,0.31676519266914543,-0.26241761502688965,-0.1542821079492569,-0.311494380235672,-0.9376397132873535,0.1453230089885796,-0.10030626082995239,-0.14150191258376807,0.974062101183837,0.02585776336491108,-0.019770914688706398,0.015096407383680344,-0.0016184300184249878,-1.4692544937133789e-05,0.00032901763916015625
2025-09-16T01:57:38Z,-0.16368929510519156,0.3171574313033747,-0.2619732364540403,-0.15483182668685913,-0.3118670880794525,-0.9374251961708069,0.14549405837415538,-0.10059258217862281,-0.14134130107597417,0.9740303376148385,0.02384021319448948,-0.019957061856985092,0.017068423330783844,-0.0013948380947113037,-0.001739203929901123,-0.0004056692123413086
2025-09-16T01:57:38Z,-0.16429711494731333,0.31754946296097025,-0.26152859497524056,-0.15538157522678375,-0.31223952770233154,-0.9372102618217468,0.14566510777685326,-0.10087888862614307,-0.1411806894312129,0.9739984548366355,0.02182266302406788,-0.020143209025263786,0.019040439277887344,-0.0011711865663528442,-0.003463953733444214,-0.0011407732963562012
2025-09-16T01:57:38Z,-0.16482093585236537,0.31784269136200327,-0.26094132956120974,-0.15585745871067047,-0.31251809000968933,-0.9370383620262146,0.14580111562496478,-0.1011080982304666,-0.14094164884218516,0.973988954320866,0.019315924495458603,-0.015427552163600922,0.019901584833860397,-0.0008506178855895996,-0.00438341498374939,-0.0026054978370666504
2025-09-16T01:57:38Z,-0.16534501517038347,0.31813564147083195,-0.260353849961414,-0.15633344650268555,-0.31279635429382324,-0.9368662238121033,0.14593710857192696,-0.10133730781766942,-0.14070259321503928,0.9739793346130126,0.016809184104204178,-0.010711895301938057,0.02076273038983345,-0.000529944896697998,-0.005303174257278442,-0.004070460796356201
2025-09-16T01:57:38Z,-0.16586929052686358,0.3184283043636318,-0.2597661649829135,-0.1568094789981842,-0.3130743205547333,-0.9366937875747681,0.14607308665198168,-0.10156648758545045,-0.14046352254977562,0.9739695957130756,0.014302444644272327,-0.005996239837259054,0.021623877808451653,-0.0002092123031616211,-0.006223201751708984,-0.005535721778869629
2025-09-16T01:57:38Z,-0.16558435570742414,0.3186681598831645,-0.2595120547732389,-0.15653018653392792,-0.31330209970474243,-0.936664342880249,0.14622320213017115,-0.10142287867045664,-0.1403262222830656,0.9739817936131436,0.010122319683432579,0.011708512902259827,0.008776480332016945,0.0006422102451324463,-0.005357265472412109,-0.003231346607208252
2025-09-16T01:57:38Z,-0.16529945597998358,0.3189081045831249,-0.25925801508445084,-0.1562509536743164,-0.31352996826171875,-0.9366347193717957,0.1463733176169216,-0.10127926230488773,-0.14018892194787191,0.9739939319086094,0.005942194722592831,0.029413269832730293,-0.004070918075740337,0.0014936625957489014,-0.004491269588470459,-0.0009271502494812012
2025-09-16T01:57:38Z,-0.16467408028827293,0.3189490200348338,-0.2593552002625208,-0.15566307306289673,-0.3135688006877899,-0.9367195963859558,0.14643223318814874,-0.10098415271607496,-0.14019170324941765,0.974015326793053,-0.00654684379696846,0.022932251915335655,-0.00725705549120903,-0.0020550191402435303,0.000857234001159668,0.003599703311920166
2025-09-16T01:57:38Z,-0.16429854752485534,0.3187090840232656,-0.25952305245857354,-0.1553235948085785,-0.313340961933136,-0.9368521571159363,0.1463328306539186,-0.1007998227893458,-0.14023876271604332,0.9740426312702374,-0.01868477091193199,0.008876084350049496,-0.006651242263615131,-0.001195952296257019,0.000988990068435669,0.006585240364074707
2025-09-16T01:57:38Z,-0.16417983868060546,0.31838842491961217,-0.259819642646975,-0.15522879362106323,-0.3130364418029785,-0.9369696974754333,0.14616950192635567,-0.10074533526685572,-0.14036492982726193,0.9740546456614839,-0.02175716497004032,-0.005492991767823696,-0.008133784867823124,-0.0016779601573944092,-0.0020941197872161865,0.005193352699279785
2025-09-16T01:57:38Z,-0.16417874506588884,0.3181112160413742,-0.2601100911300029,-0.1552419513463974,-0.3127731680870056,-0.9370554685592651,0.14601947144093247,-0.10075012497766545,-0.14049801542645865,0.9740574729830739,-0.014306595548987389,-0.008239471353590488,-0.008329305797815323,-0.0009299218654632568,-0.003102421760559082,0.003942012786865234
2025-09-16T01:57:38Z,-0.16437357013137888,0.3179288255364988,-0.2602649320117816,-0.15543383359909058,-0.31259989738464355,-0.9370814561843872,0.1459088394852473,-0.10084584219281777,-0.14058218586108603,0.974052011851941,-0.007947375066578388,-0.01265754271298647,-0.005333748646080494,-0.0010784715414047241,-0.000438690185546875,0.001846611499786377
2025-09-16T01:57:38Z,-0.164620586510906,0.3178657248250148,-0.2602726258080867,-0.15566854178905487,-0.3125399649143219,-0.9370625019073486,0.14586024617622473,-0.10096308092227278,-0.1406020551602284,0.9740443000188324,-0.007290672045201063,-0.00813264586031437,0.0008514742366969585,0.0003891587257385254,0.0003688037395477295,-0.000957489013671875
2025-09-16T01:57:38Z,-0.1648675915098945,0.31780261849759406,-0.26028032763051157,-0.15590323507785797,-0.31248003244400024,-0.9370434284210205,0.14581165286720274,-0.101080319651728,-0.140621924390887,0.9740365285811216,-0.006633969023823738,-0.0036077480763196945,0.007036696653813124,0.0018568038940429688,0.0011763274669647217,-0.0037617087364196777
2025-09-16T01:57:38Z,-0.16497456227443,0.3176763482639123,-0.2600838442764454,-0.15600994229316711,-0.31236007809638977,-0.9370656609535217,0.14575235583374302,-0.10111085107346512,-0.14053022944965587,0.974055469014306,-0.011890806257724762,0.002597413957118988,0.012757626362144947,-0.0006948709487915039,0.0017728209495544434,-0.005416810512542725
2025-09-16T01:57:38Z,-0.16494516032664072,0.3173723858253316,-0.2598008346222583,-0.15599797666072845,-0.312071293592453,-0.9371638894081116,0.14562016810586867,-0.10105849294262399,-0.14038109261627732,0.9741021916219968,-0.00967017374932766,0.011826635338366032,0.01852501928806305,0.0005826652050018311,0.001842111349105835,-0.002826988697052002
2025-09-16T01:57:38Z,-0.16498312567926435,0.3171187192103949,-0.2593999896146382,-0.1560465544462204,-0.3118303120136261,-0.9372360110282898,0.14551377291194106,-0.10103328457586835,-0.14018096473038635,0.9741495688638908,-0.010112635791301727,0.005352769512683153,0.018001101911067963,0.0010291635990142822,-0.0021049976348876953,-0.001466989517211914
2025-09-16T01:57:38Z,-0.16488565007397582,0.31696014601410577,-0.25904544677271535,-0.15596331655979156,-0.3116796314716339,-0.9372999668121338,0.1454610130386979,-0.10095096949497454,-0.1399964182439221,0.9741923982478542,-0.0005624732002615929,0.005111016798764467,0.010702470317482948,0.001177951693534851,-0.004158109426498413,0.0010616779327392578
2025-09-16T01:57:38Z,-0.164804502198678,0.31689248981719054,-0.2588882524478832,-0.15589070320129395,-0.31161534786224365,-0.9373334050178528,0.14544155549379653,-0.10089614808453255,-0.13991190771271514,0.9742131185669257,4.468788392841816e-05,0.002242807997390628,0.0035280240699648857,0.0008456707000732422,-0.0033932924270629883,0.0015301108360290527
2025-09-16T01:57:38Z,-0.16479781889019243,0.3168072353814135,-0.2588514079879547,-0.15588879585266113,-0.3115343451499939,-0.9373606443405151,0.1454022139079298,-0.10088535168778441,-0.1398909085272099,0.974223096675599,-0.0005148110794834793,-0.0026591706555336714,-0.0023319153115153313,0.0002097487449645996,0.0003266632556915283,0.0024513602256774902
2025-09-16T01:57:38Z,-0.16488249222776555,0.3167822015634293,-0.2589426564146958,-0.15596945583820343,-0.31151053309440613,-0.9373551607131958,0.1453794511542187,-0.10093180228453806,-0.13994075798324296,0.9742145159307587,-0.0038072578608989716,-0.004973975010216236,-0.006266164593398571,0.0007516443729400635,-0.00015932321548461914,0.0006860494613647461
2025-09-16T01:57:38Z,-0.16486488141290243,0.3168188159639355,-0.25916220071764196,-0.15595106780529022,-0.31154534220695496,-0.9373466968536377,0.14538748692066905,-0.10094125886037385,-0.1400475048665559,0.9741971079247177,-0.004070994909852743,-0.004553563892841339,-0.008222943171858788,0.0011255443096160889,0.00020614266395568848,-0.00024569034576416016
2025-09-16T01:57:38Z,-0.16483576173856798,0.3167998269815741,-0.25941089026635183,-0.1559247523546219,-0.311527281999588,-0.9373570680618286,0.14536769493952842,-0.10094406734355951,-0.14016595264569492,0.9741827263131633,-0.0031370343640446663,-0.0025449569802731276,-0.010770358145236969,0.001621633768081665,0.000716090202331543,-0.0020338892936706543
2025-09-16T01:57:38Z,-0.164706643458977,0.3168110917976592,-0.25967838533846543,-0.1558031439781189,-0.3115379810333252,-0.937373697757721,0.14536875739740038,-0.10090126495404801,-0.14028720321131705,0.9741695335749726,7.359776645898819e-06,0.0025430640671402216,-0.01006186380982399,0.0008708834648132324,0.0011210143566131592,-0.0015164613723754883
2025-09-16T01:57:38Z,-0.16456836622641513,0.31689498766112684,-0.25986446892221576,-0.15566924214363098,-0.3116177022457123,-0.9373694658279419,0.14541007506237175,-0.10085224287401495,-0.14037030696869507,0.9741565038759535,0.0008245716453529894,0.0014327242970466614,-0.005446737632155418,0.0006974786520004272,0.0012145936489105225,-0.0013968348503112793
2025-09-16T01:57:38Z,-0.16441266769942953,0.31696169141891006,-0.26000595366810086,-0.15551988780498505,-0.3116810917854309,-0.937373161315918,0.14544647503357327,-0.10079051934644262,-0.14042990287415483,0.9741488656078825,0.0006868552882224321,0.0012853346997871995,-0.0022891913540661335,0.00040818750858306885,0.0007557868957519531,-0.0008434653282165527
2025-09-16T01:57:38Z,-0.16436901149128935,0.3169536938525935,-0.2600589110652174,-0.15547937154769897,-0.31167349219322205,-0.9373824000358582,0.14544296398883477,-0.10077264880949353,-0.14045228344366417,0.9741480054277138,0.0005698793684132397,0.0006653380114585161,-0.0024800796527415514,8.919835090637207e-05,0.00015527009963989258,-0.0001785755157470703
2025-09-16T01:57:38Z,-0.16432535162702244,0.3169456977911817,-0.26011190019382335,-0.1554388552904129,-0.3116658926010132,-0.9373916387557983,0.1454394529440962,-0.10075477827254462,-0.14047467891432408,0.9741471452304242,0.00045290341950021684,4.5341323129832745e-05,-0.002670968184247613,-0.0002298206090927124,-0.0004452168941497803,0.0004863142967224121
2025-09-16T01:57:38Z,-0.16434329342684995,0.31690751142708223,-0.2601487719627147,-0.15545761585235596,-0.31162962317466736,-0.9374006390571594,0.14541767173099143,-0.10076400687352036,-0.14049279837081197,0.9741468263881733,0.0004888464463874698,-0.004623399581760168,-0.0024786212015897036,-0.0001258552074432373,0.00048530101776123047,0.001693427562713623
2025-09-16T01:57:38Z,-0.16440648363526822,0.3169299896529232,-0.26023257968130453,-0.15551571547985077,-0.31165096163749695,-0.9373838901519775,0.14541999716716783,-0.10080217144277759,-0.14053888999771666,0.974135865773937,-0.0001798790181055665,-0.007708088960498571,-0.0024377922527492046,-0.0009867548942565918,-0.00013494491577148438,0.0007888078689575195
2025-09-16T01:57:38Z,-0.16454988210608082,0.3169591970411923,-0.26029004909373155,-0.1556486338376999,-0.3116787374019623,-0.9373525977134705,0.1454212959998154,-0.1008778708802228,-0.14057818354935495,0.9741221711552567,0.001763064181432128,-0.006847823038697243,-0.002184766111895442,-0.00031057000160217285,-0.0005642175674438477,-0.0003510117530822754
2025-09-16T01:57:38Z,-0.16471124770550744,0.3169899633136697,-0.2603415770643013,-0.1557983160018921,-0.3117079734802246,-0.9373180270195007,0.14542239145274802,-0.10096198179456661,-0.1406159415290841,0.9741078226494334,0.005360353738069534,-0.007705712225288153,-0.0037584914825856686,-0.00015810132026672363,-0.0006609261035919189,-0.0006079673767089844
2025-09-16T01:57:38Z,-0.16477888251776251,0.3170645069591188,-0.2604038228150819,-0.1558579057455063,-0.3117787837982178,-0.937284529209137,0.1454509239294487,-0.10100373040388423,-0.14065341679835028,0.9740938320966512,0.003123544855043292,-0.0012417384423315525,-0.001658860594034195,-0.001202911138534546,0.0008064210414886475,-0.0009058713912963867
2025-09-16T01:57:38Z,-0.16478176112225895,0.3171514535790794,-0.26041822272769477,-0.1558561474084854,-0.31186139583587646,-0.9372573494911194,0.145492489638978,-0.10101117659266662,-0.14066325680271294,0.9740854165312274,0.001202137442305684,0.0006848163902759552,-0.0014283579075708985,-0.000979200005531311,0.0004177093505859375,-0.00032401084899902344
2025-09-16T01:57:38Z,-0.16477008787387246,0.3172412211096843,-0.26042186929823663,-0.15584062039852142,-0.31194669008255005,-0.9372315406799316,0.14553699973525752,-0.10101091480880198,-0.14066688446554002,0.9740782598018842,0.004110962152481079,0.0011334300506860018,-0.0019501742208376527,-0.0011797845363616943,-0.00015145540237426758,0.0003349781036376953
2025-09-16T01:57:38Z,-0.1647706596196576,0.31736553507753945,-0.2604484467565474,-0.15583479404449463,-0.3120647966861725,-0.9371932148933411,0.14559637015390642,-0.10102026645272674,-0.14068360441853336,0.9740660216322252,0.007072283886373043,-0.002923817140981555,-0.004763284232467413,-0.0011192858219146729,-0.0031379759311676025,-0.0009875893592834473
2025-09-16T01:57:38Z,-0.16482105778759848,0.3175990738232886,-0.26055631778781346,-0.15587006509304047,-0.3122866749763489,-0.9371134042739868,0.14570150487434494,-0.10106608168827542,-0.1407468259030396,0.9740364446769227,0.014535254798829556,0.0018155917059630156,-0.005716956220567226,-0.001430898904800415,-0.003700464963912964,0.0008344054222106934
2025-09-16T01:57:38Z,-0.16484236275870343,0.3179639670445923,-0.2606577857074304,-0.15587131679058075,-0.3126332759857178,-0.936997652053833,0.14587319635126536,-0.10110482083368331,-0.14080875547934815,0.9739978092951072,0.019255835562944412,-0.0037973627913743258,-0.008389312773942947,-0.0036179423332214355,-0.001990765333175659,0.0029987692832946777
2025-09-16T01:57:38Z,-0.1648838152222339,0.3183536330287475,-0.2606702301563795,-0.15589015185832977,-0.31300339102745056,-0.9368709325790405,0.14606008154882585,-0.10114832345849048,-0.14082956130433805,0.9739622013973488,0.01820206828415394,0.00243345252238214,-0.0009824098087847233,-0.0027011632919311523,-0.0003727376461029053,-0.0023456215858459473
2025-09-16T01:57:39Z,-0.16467519044598025,0.31877262518426336,-0.260724065094399,-0.15567317605018616,-0.31340131163597107,-0.936773955821991,0.14627679930135168,-0.10107474461260822,-0.14085310246460114,0.9739339217324441,0.014928831718862057,0.024095240980386734,-0.008426733314990997,0.0024812817573547363,-0.003361940383911133,-0.01076418161392212
2025-09-16T01:57:39Z,-0.16385575298768396,0.31911122710143824,-0.26094640154990867,-0.15488818287849426,-0.3137228488922119,-0.9367964863777161,0.14648876861788354,-0.10071145921039136,-0.140911511965629,0.9739312320167648,0.008880533277988434,0.046560581773519516,-0.020487815141677856,0.005545571446418762,-0.002972155809402466,-0.0074974894523620605
2025-09-16T01:57:39Z,-0.16272983632122998,0.3190951681687376,-0.2615233869977045,-0.15383414924144745,-0.3137075901031494,-0.9369752407073975,0.14653132767238472,-0.10020451814630515,-0.14110953845636276,0.973948409056394,0.0021093646064400673,0.03906829655170441,-0.022023191675543785,0.0036421120166778564,-0.0013332068920135498,-0.002513289451599121
2025-09-16T01:57:39Z,-0.16160397927920236,0.319078565582558,-0.2621004346104728,-0.1527799814939499,-0.3136918246746063,-0.9371529817581177,0.1465738569417075,-0.09969756214682696,-0.14130754984049476,0.9739654072993373,-0.0046618045307695866,0.031576015055179596,-0.023558568209409714,0.0017385482788085938,0.0003052651882171631,0.0024698972702026367
2025-09-16T01:57:39Z,-0.16047805561357173,0.31906129252765814,-0.2626773931858828,-0.15172559022903442,-0.3136754333972931,-0.9373297691345215,0.14661634157606662,-0.09919054649138448,-0.14150550114063876,0.9739819883785483,-0.01143297366797924,0.024083729833364487,-0.025093944743275642,-0.00016523897647857666,0.001943051815032959,0.007452130317687988
2025-09-16T01:57:39Z,-0.1598505201913523,0.31892598488453805,-0.26327856290769214,-0.1511441022157669,-0.31354692578315735,-0.9374666810035706,0.14656488446492014,-0.0989211263677347,-0.14174837513279545,0.973981828532249,-0.009145672433078289,0.005277002230286598,-0.02399638295173645,0.00015819072723388672,-0.00021311640739440918,0.008793175220489502
2025-09-16T01:57:39Z,-0.1596773139898474,0.3188731811062316,-0.26383797720498126,-0.15098436176776886,-0.31349679827690125,-0.9375091791152954,0.1465237062868347,-0.09887468426444668,-0.1420065966349331,0.9739551269699753,-0.002988184802234173,-0.010976774618029594,-0.023373059928417206,0.0017731040716171265,-6.461143493652344e-05,0.006022334098815918
2025-09-16T01:57:39Z,-0.1598313260602315,0.31885225534382455,-0.26430181213960197,-0.1511297971010208,-0.31347692012786865,-0.9374923706054688,0.14647959422862616,-0.09898243609947027,-0.1422431527931476,0.9739162909460378,-0.001213151030242443,-0.01697247102856636,-0.020868290215730667,0.0016533732414245605,-0.0004374086856842041,0.0026306509971618652
2025-09-16T01:57:39Z,-0.160045032129366,0.3189090442244144,-0.26474514240132124,-0.15132729709148407,-0.3135308623313904,-0.9374424815177917,0.1464701798996131,-0.09912230256994269,-0.14247631707619887,0.9738693525830916,-0.0012124216882511973,-0.013618684373795986,-0.01842668652534485,0.0025471150875091553,0.0008814632892608643,-0.0007737278938293457
2025-09-16T01:57:39Z,-0.16023907520803038,0.31894751379661274,-0.2650198560306784,-0.15150727331638336,-0.3135673701763153,-0.9374012351036072,0.1464615221618304,-0.09923916250204139,-0.14262539583885683,0.973836935164378,-0.0016882537165656686,-0.011593532748520374,-0.01256629079580307,0.00235632061958313,0.0013032257556915283,-0.003771960735321045
2025-09-16T01:57:39Z,-0.1603552466185832,0.31888409511864774,-0.26526866198246096,-0.1516193449497223,-0.31350716948509216,-0.9374032020568848,0.14640989737218787,-0.09931021902299185,-0.14275322695912207,0.9738187280720029,-0.004833363927900791,-0.0021829726174473763,-0.004546031355857849,0.0016001462936401367,0.0016342997550964355,-0.004551053047180176
2025-09-16T01:57:39Z,-0.16033842513374783,0.31884023790663824,-0.2653854778624204,-0.1516057699918747,-0.31346550583839417,-0.9374193549156189,0.14638386757882532,-0.09930799864412022,-0.14280761184407956,0.973814910490387,-0.0043568420223891735,-0.005065738223493099,-0.000177889596670866,0.00038117170333862305,-0.0019290447235107422,-0.0008755922317504883
2025-09-16T01:57:39Z,-0.16027675449180895,0.31876662576576215,-0.2654478426518105,-0.15155164897441864,-0.313395619392395,-0.9374514818191528,0.1463492118821832,-0.09927820863972613,-0.14283135485577714,0.9738196515844808,6.037391722202301e-05,0.0008371402509510517,-0.002168097300454974,0.0017973482608795166,-0.002699941396713257,-0.0003609657287597656
2025-09-16T01:57:39Z,-0.16012222985109373,0.3187640712044009,-0.2655362855724642,-0.1514069139957428,-0.31339317560195923,-0.9374756813049316,0.14635461078570747,-0.09920928948034799,-0.14286303655158109,0.9738212245094612,0.0006050186930224299,0.004546001087874174,-0.0049761394038796425,0.0025373250246047974,-0.0013044476509094238,0.0002866387367248535
2025-09-16T01:57:39Z,-0.1599317101259004,0.31874289526868776,-0.2656047800671496,-0.1512293517589569,-0.3133730888366699,-0.9375110864639282,0.14635447463053544,-0.09912028463435965,-0.1428818342310381,0.9738275806121098,-0.0017191829392686486,0.003888063132762909,-0.0037004505284130573,0.0010288357734680176,0.00012314319610595703,0.0028520822525024414
2025-09-16T01:57:39Z,-0.1599201387642798,0.3186688319063074,-0.26575790388343684,-0.15122219920158386,-0.31330275535583496,-0.9375357031822205,0.14631152806775474,-0.09912149443974283,-0.14295342953388762,0.9738233856280464,-0.002874812576919794,-0.005151262506842613,-0.007459575310349464,0.0011491626501083374,-0.0014236271381378174,0.0019290447235107422
2025-09-16T01:57:39Z,-0.15989266700959162,0.3186241085078637,-0.26599259341679427,-0.15119868516921997,-0.3132602572441101,-0.9375537037849426,0.14628001076443486,-0.09912265032211047,-0.1430644149183503,0.9738116948010617,-0.005904383026063442,-0.002761723008006811,-0.01220703311264515,0.0025041550397872925,-0.003910154104232788,-0.0006994009017944336
2025-09-16T01:57:39Z,-0.15971267101533673,0.31860230872298767,-0.26640917683309406,-0.1510310024023056,-0.31323957443237305,-0.9375876784324646,0.14626160048565712,-0.09906418678158613,-0.1432534590761245,0.973792642515958,-0.004468454048037529,0.001409345306456089,-0.015774857252836227,0.002107366919517517,-0.0030657052993774414,-0.0008551478385925293
2025-09-16T01:57:39Z,-0.15953272268158697,0.3185804470141783,-0.26682572145456146,-0.150863379240036,-0.3132188022136688,-0.9376215934753418,0.14624319018975906,-0.09900573814221236,-0.14344248826426426,0.9737735306433731,-0.003032524837180972,0.005580413155257702,-0.019342679530382156,0.0017105787992477417,-0.002221345901489258,-0.0010109543800354004
2025-09-16T01:57:39Z,-0.1593589475833747,0.31862854611542224,-0.267243945459497,-0.15069805085659027,-0.31326448917388916,-0.9376329183578491,0.1462584630830822,-0.09895456272191919,-0.14363477354513307,0.9737480969338187,-0.001374228741042316,0.0026019930373877287,-0.01642180234193802,0.001086205244064331,-0.0007186532020568848,-9.60230827331543e-05
2025-09-16T01:57:39Z,-0.1591298729453824,0.3187653579913674,-0.2676123970091583,-0.15047647058963776,-0.3133943974971771,-0.9376250505447388,0.1463235349420371,-0.09887809762823163,-0.14380127853476654,0.9737215603564434,0.0025395629927515984,0.0030569019727408886,-0.01530024316161871,-0.00019828975200653076,-0.0017232894897460938,-0.0005576014518737793
2025-09-16T01:57:39Z,-0.15897522197545827,0.31894883698086185,-0.26795837893279706,-0.1503223478794098,-0.313568651676178,-0.937591552734375,0.14640719029993596,-0.09883902602126479,-0.1439635893839366,0.9736890085255282,0.0028754756785929203,0.0021799656096845865,-0.013989700935781002,-4.26173210144043e-05,-0.0003705024719238281,-0.00011992454528808594
2025-09-16T01:57:39Z,-0.15899505342909107,0.3189923536571916,-0.2681699893806565,-0.1503387838602066,-0.3136099576950073,-0.937575101852417,0.14641656107228349,-0.09886676041624881,-0.14406929037870586,0.9736691579293337,-0.00025927391834557056,-0.0017371310386806726,-0.010326076298952103,0.00013877451419830322,0.00035369396209716797,0.0001258254051208496
2025-09-16T01:57:39Z,-0.15901483447305276,0.31903577701320324,-0.2683815473953306,-0.15035517513751984,-0.3136512041091919,-0.937558650970459,0.14642590205945208,-0.09889447987584063,-0.14417497633535709,0.9736491881410557,-0.0033940235152840614,-0.0056542279198765755,-0.006662451196461916,0.00032013654708862305,0.0010778307914733887,0.00037163496017456055
2025-09-16T01:57:39Z,-0.15903466589059667,0.31907925383808144,-0.2685931452290263,-0.15037161111831665,-0.31369248032569885,-0.937542200088501,0.1464352430294986,-0.09892221423658262,-0.14428066242897566,0.9736293375619819,-0.006528773345053196,-0.009571325033903122,-0.0029988258611410856,0.0005015432834625244,0.0018019676208496094,0.0006173849105834961
2025-09-16T01:57:39Z,-0.15917950616665685,0.3189369806438019,-0.268650278007011,-0.15051446855068207,-0.31355738639831543,-0.937564492225647,0.1463524654642408,-0.09898842188506748,-0.14431505503685832,0.9736299536968956,-0.008788196370005608,-0.008738981559872627,0.000758457463234663,0.00019668042659759521,0.0009267628192901611,0.000668644905090332
2025-09-16T01:57:39Z,-0.1594221419262078,0.31874841273216215,-0.2686367806642844,-0.15075133740901947,-0.31337830424308777,-0.9375863075256348,0.14624350566223804,-0.09909430361877154,-0.14432088686405686,0.9736347153700702,-0.007473920471966267,-0.006873051170259714,0.003954315558075905,0.0008509606122970581,0.0004995763301849365,0.0008020401000976562
2025-09-16T01:57:39Z,-0.1596571906409729,0.3185867560985274,-0.2685829791645375,-0.15097977221012115,-0.31322479248046875,-0.93760085105896,0.14615024256725012,-0.09919515934117219,-0.1443072886867809,0.973640453042717,-0.007193482015281916,-0.006474901922047138,0.004636242054402828,0.0001812279224395752,0.00010639429092407227,0.00017076730728149414
2025-09-16T01:57:39Z,-0.15977234892787867,0.3184543785713607,-0.2684793324156167,-0.15109433233737946,-0.31309908628463745,-0.9376243948936462,0.1460824104932775,-0.09923576159853936,-0.1442614823037666,0.9736532610739419,-0.006738843861967325,-0.006587103009223938,0.0056221019476652145,-0.0007134675979614258,0.0003540515899658203,-2.4259090423583984e-05
2025-09-16T01:57:39Z,-0.15988749059468899,0.3183219953292209,-0.2683757109982925,-0.15120889246463776,-0.31297335028648376,-0.9376478791236877,0.14601457841930487,-0.09927636385590653,-0.1442156759207523,0.9736660691051666,-0.006284205708652735,-0.006699304096400738,0.006607961840927601,-0.0016081780195236206,0.0006016790866851807,-0.0002194046974182129
2025-09-16T01:57:39Z,-0.1600026045957366,0.31818960101521426,-0.2682720852594837,-0.15132342278957367,-0.3128476142883301,-0.9376713633537292,0.1459467463538928,-0.0993169586626983,-0.14416985463658755,0.9736788771535124,-0.005829567555338144,-0.0068115051835775375,0.0075938221998512745,-0.0025029033422470093,0.000849306583404541,-0.0004144906997680664
2025-09-16T01:57:39Z,-0.16019481478000377,0.31816293624223074,-0.26812315000824355,-0.1515049785375595,-0.31282228231430054,-0.9376505017280579,0.14592726672512352,-0.09939808060307867,-0.14411061149626153,0.9736822830841503,-0.0018016914837062359,-0.005766172427684069,0.009201117791235447,-0.0022907108068466187,-0.0002471804618835449,-0.0013136863708496094
2025-09-16T01:57:39Z,-0.160387022613452,0.31813625118473193,-0.2679742273106287,-0.15168653428554535,-0.3127969205379486,-0.9376295804977417,0.1459077870963543,-0.09947920254345909,-0.14405136835593557,0.9736856890147884,0.0022261845879256725,-0.0047208396717906,0.010808412916958332,-0.0020785480737686157,-0.0013436973094940186,-0.0022128820419311523
2025-09-16T01:57:39Z,-0.160579225138701,0.3181095763993911,-0.26782531657170106,-0.15186807513237,-0.31277158856391907,-0.9376086592674255,0.14588832236873558,-0.0995603245009604,-0.1439921252156096,0.9736890949454263,0.006254061125218868,-0.0036755066830664873,0.012415708974003792,-0.001866355538368225,-0.002440154552459717,-0.0031120777130126953
2025-09-16T01:57:39Z,-0.16077143123943352,0.31808282021825107,-0.2676764195758931,-0.15204963088035583,-0.31274616718292236,-0.9375877380371094,0.1458688278388158,-0.09964144642421988,-0.14393288207528357,0.9736925008760642,0.010281937196850777,-0.002630173694342375,0.014023004099726677,-0.0016541928052902222,-0.003536731004714966,-0.004011332988739014
2025-09-16T01:57:39Z,-0.1607398880018898,0.3182557323397661,-0.2674810468243031,-0.15201139450073242,-0.31291040778160095,-0.9375391006469727,0.14596530534652877,-0.09962209634453813,-0.14384043657049264,0.9736936799780652,0.010358847677707672,0.02085764706134796,0.006451684050261974,0.005161210894584656,-0.006019294261932373,-0.009678840637207031
2025-09-16T01:57:39Z,-0.1601893661946575,0.3185138600404092,-0.2674514019563009,-0.15148235857486725,-0.31315556168556213,-0.9375429153442383,0.14613247639065335,-0.09936722508752867,-0.14379320896609943,0.973701602059727,0.009701956063508987,0.03753990679979324,-0.006884384900331497,0.0038222819566726685,-0.002745985984802246,-0.006510317325592041
2025-09-16T01:57:39Z,-0.15932759327095763,0.3185993659347797,-0.2676572152227942,-0.1506700962781906,-0.3132367730140686,-0.9376466274261475,0.14622600804888858,-0.09896778002503927,-0.14383285509885804,0.9737224181455554,-0.0023868437856435776,0.034669142216444016,-0.010093937627971172,0.0010705292224884033,0.0010592937469482422,0.0002556443214416504
2025-09-16T01:57:39Z,-0.15875573128198311,0.31844211677348944,-0.2679261355160669,-0.1501416563987732,-0.31308743357658386,-0.9377812743186951,0.14617703792352857,-0.09869967406024022,-0.1439175339450104,0.9737444341876013,-0.014232045970857143,0.017513198778033257,-0.008038864471018314,0.00017392635345458984,0.0031159520149230957,0.006010293960571289
2025-09-16T01:57:39Z,-0.1584636552900927,0.3181809460844601,-0.26820810870440825,-0.14988064765930176,-0.3128393888473511,-0.9379057884216309,0.14605655564378367,-0.09856251192027787,-0.14402610731829302,0.9737604027025695,-0.01418189238756895,0.000426730141043663,-0.009890631772577763,0.0007796734571456909,-0.0013508200645446777,0.007561624050140381
2025-09-16T01:57:39Z,-0.15846517757410922,0.3179859681566658,-0.2685464386097742,-0.1498916894197464,-0.31265419721603394,-0.9379658102989197,0.14594451277691217,-0.09857632323296929,-0.14418545104492694,0.9737522325935395,-0.007445816416293383,-0.008800671435892582,-0.012289686128497124,0.001129150390625,0.0005494058132171631,0.007218599319458008
2025-09-16T01:57:39Z,-0.15864457082052263,0.3179351197776691,-0.26882191718109866,-0.1500624716281891,-0.3126058876514435,-0.9379546046257019,0.14589314769362685,-0.09868072887145436,-0.14433123086048677,0.973727746387314,-0.0016356324777007103,-0.016804302111268044,-0.01179732196033001,0.001230090856552124,0.001513659954071045,0.0032300949096679688
2025-09-16T01:57:39Z,-0.1589461353067572,0.3179752805927141,-0.2689576275284104,-0.15034332871437073,-0.31264403462409973,-0.9378969073295593,0.14588429239806858,-0.09883984084412753,-0.1444204268980044,0.9736997489137382,-5.386804696172476e-05,-0.013949152082204819,-0.0051818666979670525,0.001627802848815918,0.0033282339572906494,-0.0015056729316711426
2025-09-16T01:57:39Z,-0.15916917937887626,0.31797144603670463,-0.26905046637565205,-0.15055270493030548,-0.31264039874076843,-0.9378645420074463,0.1458617189547167,-0.0989549711520657,-0.14448178480715426,0.9736823334535093,-0.0038879942148923874,-0.008507558144629002,0.0008581965230405331,0.0031183212995529175,0.004390746355056763,-0.004519283771514893
2025-09-16T01:57:39Z,-0.15921160740130944,0.3178639708967392,-0.269042549835376,-0.15059782564640045,-0.3125382959842682,-0.9378913044929504,0.14580653913551117,-0.09896862427937421,-0.1444779786727766,0.9736897884112544,-0.010894985869526863,-0.0006834128871560097,0.0030281415674835443,0.002255186438560486,0.0032584071159362793,-0.005803167819976807
2025-09-16T01:57:39Z,-0.1592123438569868,0.31766183948410126,-0.26887200274187645,-0.15060852468013763,-0.31234627962112427,-0.937953531742096,0.14571617638092868,-0.09894447741641615,-0.14438927567280396,0.9737189178067528,-0.007890243083238602,0.004059921950101852,0.012912320904433727,3.063678741455078e-05,0.0031279921531677246,-0.003596782684326172
2025-09-16T01:57:39Z,-0.15927641440651624,0.31743368515492076,-0.2686302888408214,-0.15067991614341736,-0.31212955713272095,-0.9380142688751221,0.1456120470382422,-0.09894444718095452,-0.14426979162090497,0.973752195291602,-0.001294238492846489,0.001868734834715724,0.012650313787162304,0.0012829750776290894,-0.0009518563747406006,-0.0015691518783569336
2025-09-16T01:57:39Z,-0.15922420704014653,0.3174882590721948,-0.26841764479205976,-0.1506282538175583,-0.31218138337135315,-0.938005268573761,0.14565299400410944,-0.09890680171655847,-0.1441640086559093,0.9737655490722159,0.003792747389525175,0.004056030884385109,0.008198266848921776,0.0007134675979614258,-0.0005293190479278564,-0.0008726716041564941
2025-09-16T01:57:39Z,-0.15917200020909228,0.3175428507956763,-0.2682050102084885,-0.15057657659053802,-0.31223323941230774,-0.9379963278770447,0.1456939409785371,-0.09886914880158712,-0.1440582256909137,0.97377890285283,0.00887973327189684,0.0062433271668851376,0.003746218979358673,0.0001439899206161499,-0.0001067817211151123,-0.0001761317253112793
2025-09-16T01:57:39Z,-0.1591034825560317,0.31762882213205806,-0.2681110391752738,-0.1505080610513687,-0.3123149275779724,-0.9379801154136658,0.14574552443813207,-0.09883406365887008,-0.14400991951704697,0.9737818789848008,0.003248901106417179,0.0007697404362261295,0.001003048149868846,0.00021086633205413818,0.0010790526866912842,0.0010547041893005371
2025-09-16T01:57:40Z,-0.1590897051184177,0.31764615028530413,-0.2680920803553034,-0.1504942774772644,-0.3123313784599304,-0.9379768371582031,0.14575591866397272,-0.09882700499613317,-0.14400017484952798,0.9737824862279935,-0.00029191956855356693,0.001634981599636376,-0.001135156024247408,0.0006821006536483765,-0.0005776882171630859,-0.0002090930938720703
2025-09-16T01:57:40Z,-0.15904691148734174,0.3177260401250875,-0.2681789944527461,-0.1504501849412918,-0.3124072849750519,-0.9379586577415466,0.1457937341313373,-0.09881725837647506,-0.14404163242463786,0.9737717097523653,0.0023432981688529253,0.004190964624285698,-0.00676217395812273,0.0020716488361358643,-0.001344531774520874,0.0008756518363952637
2025-09-16T01:57:40Z,-0.15894221323977473,0.3178600455217671,-0.2683516771178978,-0.1503453552722931,-0.3125345706939697,-0.937933087348938,0.1458582166196908,-0.09878685957249181,-0.14412186892898388,0.9737532593220491,0.004152790177613497,0.00311304721981287,-0.008734102360904217,0.0015279054641723633,-0.001805335283279419,0.0004228353500366211
2025-09-16T01:57:40Z,-0.15882503303105813,0.31800489464359594,-0.26854158967041436,-0.15022827684879303,-0.3126721680164337,-0.9379059672355652,0.14592805340638285,-0.09875230204342707,-0.1442098820533947,0.9737332502349857,0.006496099755167961,0.0034025919158011675,-0.00996956042945385,0.0019363760948181152,-0.0009036362171173096,-0.0007575750350952148
2025-09-16T01:57:40Z,-0.15863394408441742,0.3181789627297644,-0.26879245757699866,-0.15004046261310577,-0.31283751130104065,-0.9378808736801147,0.14601449450574755,-0.09868796870257844,-0.14432298508602656,0.9737100532724137,0.004740373231470585,0.0028124514501541853,-0.01038513146340847,0.0010751187801361084,-0.0005016624927520752,-0.00042062997817993164
2025-09-16T01:57:40Z,-0.15844282207490698,0.3183530039548282,-0.2690433866304812,-0.14985260367393494,-0.3130027949810028,-0.9378557801246643,0.14610093559655182,-0.0986236428123051,-0.14443608811865838,0.9736868563098415,0.002984646474942565,0.0022223107516765594,-0.01080070249736309,0.00021381676197052002,-9.974837303161621e-05,-8.368492126464844e-05
2025-09-16T01:57:40Z,-0.15832140010210544,0.31843330071566023,-0.26924824872224024,-0.149734765291214,-0.3130790591239929,-0.9378491640090942,0.1461388297779913,-0.09858429510896158,-0.1445292026412659,0.9736713713168608,-0.0002026357688009739,0.0007121997186914086,-0.006764118559658527,0.0007754713296890259,-0.0002644658088684082,0.0001081228256225586
2025-09-16T01:57:40Z,-0.15832843389094647,0.3183778638398498,-0.2694303120934621,-0.14974410831928253,-0.31302639842033386,-0.9378651976585388,0.14610227668789347,-0.09859771631881473,-0.14461681120215572,0.9736623895597152,-0.003003237769007683,-0.0011992845684289932,-0.006215190980583429,0.00015354156494140625,-5.2303075790405273e-05,2.1457672119140625e-05
2025-09-16T01:57:40Z,-0.15824343605259888,0.31830498764967363,-0.26959437181524837,-0.14966797828674316,-0.31295719742774963,-0.9379004836082458,0.14606473473068415,-0.09856395183681924,-0.14468842441979474,0.9736608171609681,-0.002609156770631671,-0.003064526477828622,-0.004764021839946508,0.0007641315460205078,-0.00025534629821777344,0.00012916326522827148
