timestamp,attitude_roll,attitude_pitch,attitude_yaw,gravity_x,gravity_y,gravity_z,quaternion_x,quaternion_y,quaternion_z,quaternion_w,rotation_rate_x,rotation_rate_y,rotation_rate_z,user_acceleration_x,user_acceleration_y,user_acceleration_z
2025-09-20T02:20:35Z,0.005431115351062985,0.13492939733569273,0.15270240709469451,-0.21331964433193207,-0.3216366171836853,-0.9225208163261414,0.06701022935811134,0.007843571098966188,0.07628578044054966,0.9948006878170734,-0.13623514771461487,-0.13400134444236755,-0.6219753623008728,0.0056774914264678955,-0.029251009225845337,-0.016234636306762695
2025-09-20T02:20:35Z,0.00434477886221257,0.13212722995511833,0.13972770752400376,-0.21177399158477783,-0.32184526324272156,-0.922804057598114,0.06570306084674243,0.006770702868120916,0.06979766069982743,0.9953719640976966,-0.1441289186477661,-0.1370413452386856,-0.6606594920158386,0.0024749189615249634,-0.02556377649307251,-0.011442303657531738
2025-09-20T02:20:35Z,0.0030500162805843604,0.12922803762976542,0.12629693108352416,-0.21029378473758698,-0.32202741503715515,-0.9230790138244629,0.06434426198535756,0.00559351646156821,0.0630730199875771,0.9959167429556229,-0.14120891690254211,-0.1673019677400589,-0.6565797924995422,-0.00576213002204895,-0.011152833700180054,-0.0007995367050170898
2025-09-20T02:20:36Z,0.0011226630246325615,0.12648646715577014,0.11331473763388253,-0.20945149660110474,-0.32222500443458557,-0.9232015609741211,0.06306794017220012,0.004138201875433514,0.05654926663144722,0.996397214188202,-0.12945827841758728,-0.1864829808473587,-0.6244989633560181,-0.003408193588256836,-0.004353642463684082,-0.002326667308807373
2025-09-20T02:20:36Z,-0.0009655792199495659,0.12408505645707914,0.10086121548000501,-0.2088322937488556,-0.3225931227207184,-0.9232133030891418,0.06194819049391226,0.0026442621399896493,0.05028234546068856,0.9968084304763333,-0.1132737547159195,-0.17213192582130432,-0.612939178943634,0.006750538945198059,-0.012409418821334839,-0.014921844005584717
2025-09-20T02:20:36Z,-0.002572391084544149,0.12200139263300279,0.08845446535719305,-0.20774680376052856,-0.32321321964263916,-0.9232412576675415,0.06095997346468037,0.0014127910053383557,0.044052214840498434,0.9971665507610616,-0.10128439217805862,-0.13986080884933472,-0.6140698790550232,0.008530020713806152,-0.015830546617507935,-0.02255117893218994
2025-09-20T02:20:36Z,-0.003652393665095852,0.12011172267445638,0.07638289977050097,-0.20621448755264282,-0.32391318678855896,-0.9233394861221313,0.06004550589802819,0.00047010690305157013,0.038003741472575445,0.997471770315336,-0.09592677652835846,-0.11754997074604034,-0.5900331139564514,0.00452914834022522,-0.006765007972717285,-0.016740500926971436
2025-09-20T02:20:36Z,-0.0045022690360874175,0.11826465136426113,0.06478175719621049,-0.20454086363315582,-0.32452836632728577,-0.9234957098960876,0.05913950238340024,-0.0003321266770684597,0.03219556483232969,0.9977302821725919,-0.09377919137477875,-0.10758520662784576,-0.5591780543327332,-0.0009364038705825806,-0.002688109874725342,-0.01224064826965332
2025-09-20T02:20:36Z,-0.005330149927219122,0.1163856888872729,0.053631875307956385,-0.20291776955127716,-0.3249967694282532,-0.923689067363739,0.05821023036176758,-0.0011001812493173489,0.026612299228566418,0.9979488990607058,-0.09759865701198578,-0.10974197834730148,-0.5382941365242004,-0.002741396427154541,-0.001994222402572632,-0.01049041748046875
2025-09-20T02:20:36Z,-0.006318660595106768,0.11443599266949264,0.04313120698483692,-0.20156045258045197,-0.32524678111076355,-0.9238982200622559,0.05724121746935848,-0.0019202556416232093,0.021347906867171768,0.9981301949996766,-0.10555003583431244,-0.10716629028320312,-0.5034183859825134,0.0003952533006668091,0.0034323930740356445,-0.014425456523895264
2025-09-20T02:20:36Z,-0.007191283116662491,0.11232138735065929,0.03336475795542938,-0.2002367526292801,-0.3251788020133972,-0.9242098927497864,0.05618289215026591,-0.0026531133777402236,0.01645339908322358,0.998281338521143,-0.11051119863986969,-0.09803104400634766,-0.46103450655937195,0.004865750670433044,0.006080508232116699,-0.01701897382736206
2025-09-20T02:20:36Z,-0.007964257263685496,0.11017928385110042,0.024635950765004317,-0.19903291761875153,-0.32486647367477417,-0.9245797395706177,0.0551061460915041,-0.003297548347249711,0.012079634541274725,0.99840193436971,-0.1072106808423996,-0.08910945057868958,-0.44106602668762207,0.006796002388000488,-0.00048235058784484863,-0.015096664428710938
2025-09-20T02:20:36Z,-0.00875580040949538,0.10804394219260588,0.01590751970865988,-0.19783245027065277,-0.3245428800582886,-0.9249509572982788,0.0540282463590924,-0.003941901357900786,0.007705617706069654,0.9985018329981763,-0.1039101630449295,-0.0801878497004509,-0.4210975468158722,0.008729621767997742,-0.007056444883346558,-0.01317298412322998
2025-09-20T02:20:36Z,-0.009553225631611926,0.10608898984023128,0.007531202915479393,-0.1967022567987442,-0.3243032395839691,-0.925275981426239,0.053036603905361496,-0.004570194408772804,0.003507001803504694,0.9985759487502045,-0.09334975481033325,-0.08355934917926788,-0.4063244163990021,0.00612226128578186,-0.008674830198287964,-0.009447038173675537
2025-09-20T02:20:36Z,-0.010350714882674616,0.10437558300728869,-0.000615962322564564,-0.19561058282852173,-0.3242289423942566,-0.9255334138870239,0.0521618148984023,-0.005184353602267107,-0.0005775244539709901,0.9986249750214959,-0.08087734878063202,-0.09015744179487228,-0.3972330689430237,0.002885103225708008,-0.009331881999969482,-0.007609248161315918
2025-09-20T02:20:36Z,-0.011402303888134473,0.10298953974129202,-0.008532918799649458,-0.19479356706142426,-0.324400931596756,-0.9256454706192017,0.05144641998177771,-0.00591311126410569,-0.004554167440285935,0.9986478362050798,-0.06508231908082962,-0.09515761584043503,-0.38780924677848816,0.0021299272775650024,-0.010484755039215088,-0.00810176134109497
2025-09-20T02:20:36Z,-0.012541047759157726,0.10185511647523672,-0.016279061845288684,-0.1940842717885971,-0.3247610330581665,-0.9256681799888611,0.05085188877285679,-0.006676480213601045,-0.008447920217702238,0.9986481341055025,-0.05312842130661011,-0.0949191004037857,-0.37968572974205017,0.003839731216430664,-0.01133352518081665,-0.012351453304290771
2025-09-20T02:20:36Z,-0.013570992554842341,0.10099697685101038,-0.02384325178804771,-0.19330435991287231,-0.3253311514854431,-0.9256311655044556,0.05039149249827423,-0.0073780530945993265,-0.01224835744002198,0.998627148491426,-0.04499523341655731,-0.08495163917541504,-0.36845144629478455,0.005182594060897827,-0.009909898042678833,-0.01794523000717163
2025-09-20T02:20:36Z,-0.014464382321655958,0.10025608075031078,-0.031104589317412883,-0.19245748221874237,-0.3259430527687073,-0.9255923628807068,0.04998735043158682,-0.008001398072749185,-0.015894063613349465,0.9985912882155072,-0.03966427594423294,-0.07559428364038467,-0.3475116789340973,0.004675358533859253,-0.00324365496635437,-0.020708799362182617
2025-09-20T02:20:36Z,-0.015124282165353088,0.09956032977377836,-0.03782963892300294,-0.19150982797145844,-0.32649004459381104,-0.9255961179733276,0.04960643811649096,-0.008492461948165492,-0.019265941313340407,0.9985468269808832,-0.03739403933286667,-0.060343485325574875,-0.3181796669960022,0.006293103098869324,0.0013563334941864014,-0.020881235599517822
2025-09-20T02:20:36Z,-0.01547377863937241,0.09898899115692071,-0.04394085477244324,-0.19040997326374054,-0.3270346224308014,-0.9256308078765869,0.04929111317449982,-0.008812324631053801,-0.022323782514732427,0.998496002726681,-0.03126130998134613,-0.03786506503820419,-0.28918635845184326,0.008037731051445007,-0.0006974637508392334,-0.019531309604644775
2025-09-20T02:20:36Z,-0.015529109967491891,0.09856199344208566,-0.04967831167999104,-0.1891184151172638,-0.3276395797729492,-0.9256816506385803,0.04905176187282639,-0.008976098300363495,-0.025188068831994443,0.9984382466681447,-0.018768858164548874,-0.02327106148004532,-0.2777872383594513,0.009023025631904602,-0.007093518972396851,-0.016470015048980713
2025-09-20T02:20:36Z,-0.015358974787568952,0.09840859740396657,-0.05521062732421174,-0.1876593977212906,-0.32845553755760193,-0.9256894588470459,0.04895254694257357,-0.009024734538529679,-0.02794515150644326,0.9983693356451806,-0.004658862948417664,-0.013108177110552788,-0.2670529782772064,0.007030844688415527,-0.007037550210952759,-0.014722228050231934
2025-09-20T02:20:36Z,-0.015051962872510522,0.09842643836916447,-0.06040699858843142,-0.1861470639705658,-0.32936570048332214,-0.925671398639679,0.048942527396975355,-0.00899891360203121,-0.030531546007519738,0.9982942956286586,0.002452260348945856,-0.008651462383568287,-0.24935075640678406,0.004965290427207947,-0.0038431286811828613,-0.01255178451538086
2025-09-20T02:20:36Z,-0.014699391110051838,0.09858214748441105,-0.06519512382170227,-0.18468429148197174,-0.3303280174732208,-0.9256214499473572,0.049004364436302184,-0.008942593545866732,-0.032913257462327435,0.9982160667808857,0.005754407495260239,-0.008824781514704227,-0.22510528564453125,0.004770383238792419,-0.0014750659465789795,-0.012361884117126465
2025-09-20T02:20:36Z,-0.01441404881683649,0.09876388195097428,-0.06961739092107712,-0.18336696922779083,-0.3312471807003021,-0.9255548715591431,0.04908018301661764,-0.00891164717989534,-0.03511387369455657,0.9981376102472757,0.004803826101124287,-0.004989952314645052,-0.21062995493412018,0.006850942969322205,-0.003649115562438965,-0.013293743133544922
2025-09-20T02:20:36Z,-0.014012945314104953,0.0988277554094826,-0.0737384591758607,-0.18201179802417755,-0.33200162649154663,-0.9255520701408386,0.0491010458844047,-0.00881376091482417,-0.037160819806017924,0.9980633318755732,0.001960674300789833,-0.0036407532170414925,-0.20493628084659576,0.006189599633216858,-0.00567471981048584,-0.012540996074676514
2025-09-20T02:20:36Z,-0.0136115583766177,0.09888999657410119,-0.07785959333890125,-0.18065352737903595,-0.332750529050827,-0.9255492091178894,0.049121709074414745,-0.008715828293502294,-0.039207616503320275,0.9979848572005886,-0.0008824774995446205,-0.0022915538866072893,-0.19924260675907135,0.005525156855583191,-0.0077058374881744385,-0.01178830862045288
2025-09-20T02:20:36Z,-0.013387814546798115,0.09890240098609084,-0.08178549533546456,-0.17950399219989777,-0.3334167003631592,-0.9255331754684448,0.049115300493491595,-0.008700848513915583,-0.0411610707433409,0.9979066367537434,0.0005717995809391141,-0.008991937153041363,-0.18863727152347565,0.004428386688232422,-0.006642431020736694,-0.010245025157928467
2025-09-20T02:20:36Z,-0.013226833650392301,0.09896416259422113,-0.08557847155617743,-0.1784418225288391,-0.33410295844078064,-0.9254910945892334,0.049132990708687915,-0.008714973016274115,-0.043049700005809544,0.9978259554032934,0.000347641936969012,-0.011486921459436417,-0.18927843868732452,0.007154002785682678,-0.012303024530410767,-0.012760698795318604
2025-09-20T02:20:36Z,-0.013037376729219475,0.09897632820400687,-0.08958213557936147,-0.17730024456977844,-0.3347744345664978,-0.925467848777771,0.04912578254184868,-0.008719067327431886,-0.0450424657197195,0.9977383072727894,-0.001242741709575057,-0.013058729469776154,-0.2049562782049179,0.006670057773590088,-0.01656249165534973,-0.015975773334503174
2025-09-20T02:20:36Z,-0.012982465724820669,0.09903118081557882,-0.093781870646001,-0.17623284459114075,-0.3355136811733246,-0.9254040122032166,0.04913602139303243,-0.00879608993329011,-0.04713624848381621,0.9976404141027854,0.0008821343071758747,-0.023274190723896027,-0.20731377601623535,0.002914711833000183,-0.011733591556549072,-0.011912763118743896
2025-09-20T02:20:36Z,-0.01320997936407995,0.09917847411031648,-0.09786038150282904,-0.17545294761657715,-0.33631473779678345,-0.9252614378929138,0.04918585352976325,-0.009013322565509135,-0.04917648456312799,0.9975375772654055,0.0038448921404778957,-0.03733077645301819,-0.1965930461883545,0.0015295445919036865,-0.006331533193588257,-0.009851455688476562
2025-09-20T02:20:36Z,-0.013537396814532362,0.09924833391706515,-0.101788699343922,-0.17479963600635529,-0.33701565861701965,-0.9251300096511841,0.049194525467154,-0.009274966583529456,-0.051143907906389584,0.9974357982450949,0.002291372511535883,-0.0380106158554554,-0.18480455875396729,0.003914877772331238,-0.004085183143615723,-0.0127829909324646
2025-09-20T02:20:36Z,-0.013858907453455088,0.09933197379765019,-0.1054394678477355,-0.17420604825019836,-0.3376810848712921,-0.9249993562698364,0.04921070825374632,-0.009527264275613758,-0.05297260975799246,0.9973371746188311,0.0007282615406438708,-0.02781454287469387,-0.1776709258556366,0.007364153861999512,-0.0048153698444366455,-0.015915989875793457
2025-09-20T02:20:36Z,-0.01395757029654334,0.09936487874631804,-0.10899613751529313,-0.17342740297317505,-0.33828115463256836,-0.9249264001846313,0.049207394392273764,-0.009664846869329365,-0.05474862086728464,0.9972401038422337,-0.003944181837141514,-0.026918552815914154,-0.1728857159614563,0.006176024675369263,-0.0059806108474731445,-0.013022422790527344
2025-09-20T02:20:36Z,-0.014161214174674744,0.09934237854583851,-0.11255523633352148,-0.17274348437786102,-0.3388271629810333,-0.9248545169830322,0.0491731445663244,-0.009853301592749848,-0.05652813286286514,0.9971406384762708,-0.006015809252858162,-0.02950063906610012,-0.17527049779891968,0.004590675234794617,-0.008231163024902344,-0.01164180040359497
2025-09-20T02:20:36Z,-0.014535797826852818,0.0992316553756748,-0.11611522376841822,-0.17221581935882568,-0.3392884433269501,-0.9247838258743286,0.04908940699284529,-0.010124362288712671,-0.05831190961107,0.9970393344631941,-0.008624271489679813,-0.03710193932056427,-0.17771755158901215,0.00442110002040863,-0.008269578218460083,-0.011763453483581543
2025-09-20T02:20:36Z,-0.014850573364556469,0.09907145524815751,-0.11977097190723486,-0.17160746455192566,-0.3397158086299896,-0.9247400164604187,0.04898149582211151,-0.010366220589039648,-0.0601416401657353,0.9969334662982529,-0.010048332624137402,-0.038729067891836166,-0.18074069917201996,0.004234433174133301,-0.009671181440353394,-0.014588594436645508
2025-09-20T02:20:36Z,-0.015248087260446474,0.09892730758616569,-0.12343544670919196,-0.17107124626636505,-0.3401561379432678,-0.9246774911880493,0.04887825437051383,-0.010649661104569972,-0.06197755927437978,0.9968230989868568,-0.012083695270121098,-0.04024640843272209,-0.1765594184398651,0.003308430314064026,-0.007205754518508911,-0.016054272651672363
2025-09-20T02:20:36Z,-0.01567666071944699,0.09875283252196924,-0.12698786855693886,-0.17058953642845154,-0.3405476212501526,-0.9246223568916321,0.04875864683120217,-0.010944550160852684,-0.06375809162316559,0.9967134195083426,-0.011509842239320278,-0.038804784417152405,-0.17298513650894165,0.004871264100074768,-0.0073167383670806885,-0.017514824867248535
2025-09-20T02:20:36Z,-0.015931820197432143,0.09867356885380875,-0.13071236404924905,-0.16990229487419128,-0.3410508930683136,-0.9245634078979492,0.048690311474702146,-0.011159907574325731,-0.06562013923224125,0.9965934944443502,-0.006004635244607925,-0.033965326845645905,-0.18197868764400482,0.005519494414329529,-0.010489076375961304,-0.01638847589492798
2025-09-20T02:20:36Z,-0.0161872754625562,0.09859521450797251,-0.1344368634236102,-0.16921314597129822,-0.3415515720844269,-0.9245049357414246,0.048621786191472796,-0.011375226345764315,-0.06748196236389095,0.9964700351613617,-0.00049942871555686,-0.029125869274139404,-0.1909722238779068,0.006165817379951477,-0.013663947582244873,-0.015261650085449219
2025-09-20T02:20:36Z,-0.01640840452244308,0.09871329967534387,-0.13831454078501226,-0.16845080256462097,-0.34225431084632874,-0.9243842959403992,0.048650794425233054,-0.01158368523302585,-0.06941948356875252,0.99633311673059,0.005993670783936977,-0.030648361891508102,-0.19598466157913208,0.005059555172920227,-0.01279526948928833,-0.01259845495223999
2025-09-20T02:20:36Z,-0.01663092199640683,0.09897865927467256,-0.14225828492069342,-0.16767007112503052,-0.34309983253479004,-0.9242127537727356,0.04875209658589242,-0.011799793781373314,-0.07139003023293346,0.9961864002809074,0.011974913068115711,-0.036112021654844284,-0.1936875730752945,0.004383578896522522,-0.01002386212348938,-0.009287059307098389
2025-09-20T02:20:36Z,-0.017024425282134877,0.09930568201929521,-0.14616273609059288,-0.16705437004566193,-0.343992680311203,-0.9239923357963562,0.048877410420431484,-0.012102774156781352,-0.07334505235771321,0.9960346232528856,0.012345696799457073,-0.04264716058969498,-0.1924491971731186,0.004389017820358276,-0.010396063327789307,-0.009576499462127686
2025-09-20T02:20:36Z,-0.017410406570412762,0.09958166838878,-0.15008879968145858,-0.16642414033412933,-0.34483757615089417,-0.9237911105155945,0.04897645795512346,-0.012401168427721456,-0.07531026492142942,0.9958794463860168,0.010442623868584633,-0.034769073128700256,-0.2014833390712738,0.007260382175445557,-0.015455573797225952,-0.013832449913024902
2025-09-20T02:20:36Z,-0.017669641618171902,0.09981681161234328,-0.15450869888520963,-0.16555026173591614,-0.3457140624523163,-0.9236205220222473,0.04905596002597735,-0.012647445671987195,-0.0775178488897022,0.9957030312665305,0.00623695133253932,-0.03830268234014511,-0.23040246963500977,0.008051902055740356,-0.020946741104125977,-0.01486194133758545
2025-09-20T02:20:36Z,-0.018067648590630057,0.09990084373786422,-0.15934292770550953,-0.16469785571098328,-0.34650668501853943,-0.9234759211540222,0.049051169667434245,-0.012967413068210441,-0.07993431225968105,0.9955080932190468,-0.0033623934723436832,-0.04581668972969055,-0.24879190325737,0.006608635187149048,-0.01715773344039917,-0.014960289001464844
2025-09-20T02:20:36Z,-0.01859988878752496,0.09987887498178077,-0.16453061828788562,-0.1638769656419754,-0.34724685549736023,-0.9233438968658447,0.048984473634621356,-0.013358571739508341,-0.08252921737977532,0.9952944661864298,-0.012584740296006203,-0.058957941830158234,-0.26208049058914185,0.006738811731338501,-0.014843732118606567,-0.013141870498657227
2025-09-20T02:20:36Z,-0.0192857980253357,0.09962532517646278,-0.17013159571332842,-0.16309039294719696,-0.34782546758651733,-0.9232653975486755,0.04879145250101515,-0.013826263694042995,-0.08533230759268105,0.9950610986967672,-0.02213186025619507,-0.0659114196896553,-0.2898462414741516,0.008929818868637085,-0.016749471426010132,-0.013218224048614502
2025-09-20T02:20:36Z,-0.020011386089874433,0.09928565373539577,-0.17640867945241942,-0.16216406226158142,-0.3484131395816803,-0.9232069849967957,0.04854675917226301,-0.014325374630536007,-0.08847165715654573,0.9947917853577624,-0.026067569851875305,-0.06964608281850815,-0.3281058967113495,0.01047813892364502,-0.018632739782333374,-0.009574174880981445
2025-09-20T02:20:36Z,-0.0207765937700111,0.09889207780235969,-0.18333338601836163,-0.1611032485961914,-0.3490324020385742,-0.9231587648391724,0.048265976432217514,-0.014855974523205893,-0.09193284489736149,0.9944838112837304,-0.025780722498893738,-0.07928077131509781,-0.35560479760169983,0.009206175804138184,-0.015309840440750122,-0.0041367411613464355
2025-09-20T02:20:37Z,-0.021806843012385245,0.09851660744409843,-0.1906968799465889,-0.160167396068573,-0.3497174382209778,-0.9230623841285706,0.047975049284131974,-0.015527929037112073,-0.0956173160934675,0.994140174968069,-0.028307991102337837,-0.0946730524301529,-0.3706585466861725,0.006242185831069946,-0.008980780839920044,0.0008480548858642578
2025-09-20T02:20:37Z,-0.02302739515993869,0.098042522244995,-0.19829834945424107,-0.15933895111083984,-0.3503299057483673,-0.9229735136032104,0.0476194283559573,-0.01629332780292919,-0.09942274615298972,0.9937716241414581,-0.03679846227169037,-0.10438603162765503,-0.37768498063087463,0.007069870829582214,-0.004477143287658691,0.0013390183448791504
2025-09-20T02:20:37Z,-0.024388397865704962,0.09737622374837572,-0.20603861404979879,-0.1585978865623474,-0.3507682979106903,-0.9229345917701721,0.047154747529564375,-0.017119472429582765,-0.10329799777400635,0.9933845282282224,-0.049411434680223465,-0.10645963251590729,-0.3915902376174927,0.010457262396812439,-0.004300475120544434,-0.0015320777893066406
2025-09-20T02:20:37Z,-0.025886008092713467,0.09640921276707229,-0.21408091019454342,-0.15789911150932312,-0.3509528636932373,-0.92298424243927,0.04652500556176658,-0.018001189024635985,-0.1073232106167197,0.992971849660214,-0.05581848323345184,-0.11557164788246155,-0.3879552185535431,0.006864964962005615,0.00011983513832092285,-0.00432056188583374
2025-09-20T02:20:37Z,-0.027391242695746908,0.0954541913156921,-0.2221238779531646,-0.15719902515411377,-0.35113176703453064,-0.923035740852356,0.04589443211639314,-0.01888258630866667,-0.11134652304921021,0.9925417669291318,-0.06222553178668022,-0.12468366324901581,-0.3843201994895935,0.003271341323852539,0.004534482955932617,-0.007107138633728027
2025-09-20T02:20:37Z,-0.029217838182527645,0.09445219879701237,-0.22968046327824662,-0.1569157838821411,-0.3511872887611389,-0.923062801361084,0.04522050242121666,-0.019904948520446854,-0.11513309522931445,0.9921206294622951,-0.06028018519282341,-0.13321025669574738,-0.355326384305954,0.0008547455072402954,0.00814703106880188,-0.011581122875213623
2025-09-20T02:20:37Z,-0.0310296702271963,0.09351543353044693,-0.23655261317208268,-0.15679170191287994,-0.35120099782943726,-0.9230786561965942,0.04457985417199888,-0.020903756074323952,-0.11857765768634008,0.9917232461352621,-0.0522281676530838,-0.1192551776766777,-0.3180099129676819,0.003419816493988037,0.00701981782913208,-0.015606939792633057
2025-09-20T02:20:37Z,-0.032819977636582044,0.09280106915084468,-0.2429400379479036,-0.1567678302526474,-0.35134756565093994,-0.9230269193649292,0.04404971813644303,-0.021890461026043532,-0.12178032887141763,0.9913374482556471,-0.0414627343416214,-0.10764065384864807,-0.3082481026649475,0.005020081996917725,-0.000644296407699585,-0.015692949295043945
2025-09-20T02:20:37Z,-0.034243243613858054,0.0923515869359238,-0.24903613984621728,-0.15647439658641815,-0.35169288516044617,-0.9229452013969421,0.04367121556267427,-0.022702119605052806,-0.12483015376148311,0.990956499443047,-0.02304115518927574,-0.09162341803312302,-0.29293718934059143,0.005499854683876038,-0.0015044808387756348,-0.01853501796722412
2025-09-20T02:20:37Z,-0.035302129703331825,0.09223724476779335,-0.25481017822926183,-0.1559215486049652,-0.35229983925819397,-0.9228072762489319,0.04348123795178199,-0.023345355231400213,-0.12771294808303282,0.9905824698634169,-0.0027041416615247726,-0.0760834664106369,-0.27293694019317627,0.0015128999948501587,-0.002739518880844116,-0.01981210708618164
2025-09-20T02:20:37Z,-0.03638335101358092,0.09258228470831019,-0.25991141670395274,-0.15555837750434875,-0.35324254631996155,-0.922508180141449,0.04352200776012042,-0.02401370536441911,-0.13026465378479396,0.9902324202627898,0.022621391341090202,-0.07486383616924286,-0.23110683262348175,-0.003026604652404785,0.0023259520530700684,-0.015918195247650146
2025-09-20T02:20:37Z,-0.03742809046719412,0.09337492293972943,-0.26405952695311385,-0.15540626645088196,-0.3544788360595703,-0.9220594763755798,0.04379540497516984,-0.024672808949281328,-0.13234577696794206,0.9899281738407647,0.041627347469329834,-0.06772378087043762,-0.18351249396800995,-0.0027063339948654175,0.00433039665222168,-0.015910625457763672
2025-09-20T02:20:37Z,-0.03834081038175484,0.09443324029397417,-0.26737927973352216,-0.1553472876548767,-0.3558577299118042,-0.9215381145477295,0.04421706367991439,-0.025267098343280496,-0.1340154324571187,0.9896698219823266,0.05483219027519226,-0.05306457355618477,-0.15468977391719818,0.0008253902196884155,-0.004606395959854126,-0.018489181995391846
2025-09-20T02:20:37Z,-0.03903351285491341,0.0958255368313731,-0.27037049393268303,-0.15516668558120728,-0.35750362277030945,-0.920931339263916,0.04482126552175811,-0.025768962046122078,-0.13551971915483718,0.989424825293187,0.06807100772857666,-0.04168681427836418,-0.14679557085037231,0.003064587712287903,-0.013144463300704956,-0.02212977409362793
2025-09-20T02:20:37Z,-0.03936217060054843,0.09738342777302046,-0.27317685280583553,-0.15469622611999512,-0.3592778146266937,-0.9203197956085205,0.04553330986980736,-0.026099578579088976,-0.13692534420694616,0.9891900050461049,0.07815510034561157,-0.027835994958877563,-0.13105088472366333,0.0029049068689346313,-0.013959556818008423,-0.02592623233795166
2025-09-20T02:20:37Z,-0.03951190066660053,0.09914906489878554,-0.27562121004117207,-0.15415389835834503,-0.3611988127231598,-0.9196586012840271,0.04636437621051509,-0.026349510245848685,-0.1381489117344278,0.9889746374233191,0.0849427729845047,-0.011595696210861206,-0.12044510245323181,0.0034875422716140747,-0.017927110195159912,-0.03063136339187622
2025-09-20T02:20:37Z,-0.039359471783034866,0.10091163391065466,-0.2777765729585005,-0.15341044962406158,-0.3630804717540741,-0.9190418124198914,0.047218219913202415,-0.026445069243175356,-0.13922215102127025,0.9887811939826031,0.08236394822597504,0.013934880495071411,-0.10514578223228455,0.007066398859024048,-0.01621568202972412,-0.033347487449645996
2025-09-20T02:20:37Z,-0.03866585376340432,0.10255281674794439,-0.27986515542221635,-0.15218909084796906,-0.3648397922515869,-0.9185479879379272,0.04805069688939606,-0.02626498020605517,-0.14024814585260492,0.9886008787118571,0.06667262315750122,0.03641650453209877,-0.11491810530424118,0.011607274413108826,-0.018854141235351562,-0.03153413534164429
2025-09-20T02:20:37Z,-0.03736541209768042,0.10345863125063734,-0.28248284830408615,-0.15027852356433868,-0.36597898602485657,-0.9184093475341797,0.048556088491489874,-0.02574838442777085,-0.1415157864044489,0.9884090998368857,0.039644449949264526,0.044398464262485504,-0.13017995655536652,0.0125046968460083,-0.014967590570449829,-0.023008644580841064
2025-09-20T02:20:37Z,-0.036062489562992704,0.10436101896224617,-0.2851019458498766,-0.14836513996124268,-0.3671129643917084,-0.9182678461074829,0.04906135584553085,-0.025231740502200114,-0.14278310958140175,0.9882151764549245,0.01261628046631813,0.05238042026758194,-0.14544180035591125,0.013399302959442139,-0.011086225509643555,-0.01448589563369751
2025-09-20T02:20:37Z,-0.034595740861584845,0.10448001482866494,-0.2884987254522226,-0.1461014598608017,-0.36761030554771423,-0.91843181848526,0.04918316148510134,-0.024598956538788967,-0.14442586068613125,0.9879863292915991,-0.014399698004126549,0.05561554804444313,-0.20246566832065582,0.018003836274147034,-0.02644050121307373,-0.0136183500289917
2025-09-20T02:20:37Z,-0.03370747434744929,0.10405879556046217,-0.29575990131230534,-0.14333023130893707,-0.3680395185947418,-0.9186965823173523,0.048951235515661246,-0.024307991651175004,-0.1479881653732809,0.9874777473362407,-0.02291363850235939,0.008297748863697052,-0.2974900007247925,0.012592509388923645,-0.026689261198043823,0.0013486742973327637
2025-09-20T02:20:37Z,-0.03282234642479029,0.10363121843799816,-0.3030204202374332,-0.14055593311786652,-0.3684486448764801,-0.9189611673355103,0.048718690333889904,-0.024016713111384157,-0.15154855330495628,0.9869562489846998,-0.03142757713794708,-0.03902004659175873,-0.39251431822776794,0.007178112864494324,-0.026958107948303223,0.0163155198097229
2025-09-20T02:20:37Z,-0.03194039779693539,0.10319722153315983,-0.3102802053922071,-0.13777872920036316,-0.36883753538131714,-0.9192256927490234,0.04848548916219897,-0.02372511473987306,-0.15510694643674602,0.9864218260024086,-0.03994151949882507,-0.08633783459663391,-0.4875386357307434,0.0017607957124710083,-0.02724716067314148,0.03128230571746826
2025-09-20T02:20:37Z,-0.03307383713960154,0.10267339610509707,-0.3205772302628219,-0.13602052628993988,-0.3694493770599365,-0.9192418456077576,0.04801369834970355,-0.02449146755334662,-0.16020873812457698,0.9856104196453257,-0.04975511506199837,-0.15236422419548035,-0.5627115964889526,0.002963349223136902,-0.020374417304992676,0.03885596990585327
2025-09-20T02:20:37Z,-0.035223669736988816,0.10197853541798324,-0.33282104452160566,-0.13465408980846405,-0.37007302045822144,-0.9191921949386597,0.047341960749391586,-0.025786143660065312,-0.16628777594766297,0.9846025439773822,-0.06266883760690689,-0.2077966183423996,-0.6458852291107178,0.005837112665176392,-0.013748407363891602,0.03987324237823486
2025-09-20T02:20:37Z,-0.038759562061605066,0.10125085302776018,-0.3468222171609321,-0.13406290113925934,-0.3707978129386902,-0.918986439704895,0.04649612835021719,-0.027793180622328405,-0.17325580186855927,0.9833859919960704,-0.0696234405040741,-0.28153130412101746,-0.73960280418396,0.0032916218042373657,-0.017444312572479248,0.030602574348449707
2025-09-20T02:20:37Z,-0.04328659516707813,0.1005843110156233,-0.3624740923548149,-0.13390517234802246,-0.3716801404953003,-0.9186529517173767,0.045540122428348505,-0.0303192795304192,-0.1810465691431426,0.9819515585464863,-0.06890863180160522,-0.318964421749115,-0.8082650303840637,-3.9264559745788574e-05,-0.022703468799591064,-0.003297269344329834
2025-09-20T02:20:37Z,-0.048148105703174605,0.10012352654569588,-0.3789626277076345,-0.13379497826099396,-0.37275955080986023,-0.9182315468788147,0.04460277143202907,-0.033033719706108626,-0.1892420661455871,0.9803604548014643,-0.05789439007639885,-0.33514657616615295,-0.8152468204498291,-0.005058556795120239,-0.015607476234436035,-0.02407073974609375
2025-09-20T02:20:37Z,-0.05328604225522577,0.10001636314407704,-0.3954592595043144,-0.1339045912027359,-0.3740910291671753,-0.9176739454269409,0.04376925537514106,-0.035904353042588585,-0.19743420178288645,0.9786801572096753,-0.04096866771578789,-0.3388073444366455,-0.8153747916221619,-0.004834815859794617,-0.017062395811080933,-0.03507530689239502
2025-09-20T02:20:37Z,-0.058341036586291285,0.10029876492304031,-0.41179320489970006,-0.13395068049430847,-0.37569335103034973,-0.9170123934745789,0.04309326067068775,-0.03875856810631712,-0.20553219551113258,0.9769325414662163,-0.020455289632081985,-0.32660168409347534,-0.8157649636268616,4.00543212890625e-05,-0.019165515899658203,-0.03660863637924194
2025-09-20T02:20:37Z,-0.06327089119160398,0.10116057684799773,-0.4282011572174873,-0.13382327556610107,-0.37776124477386475,-0.9161810874938965,0.0426678177713337,-0.04160522461752814,-0.21365339344087284,0.9750900965672966,0.002544041723012924,-0.32984021306037903,-0.8146975040435791,-0.0010300874710083008,-0.014870166778564453,-0.03125500679016113
2025-09-20T02:20:37Z,-0.06802994719402222,0.10244189870870735,-0.44427664310386583,-0.133598193526268,-0.38011634349823,-0.9152393937110901,0.042428876311928196,-0.044402601540924756,-0.22159807372059107,0.9732022293663204,0.0209159255027771,-0.31212863326072693,-0.7791348695755005,-0.0016681849956512451,-0.0017017722129821777,-0.03095400333404541
2025-09-20T02:20:37Z,-0.072610742012492,0.1039702073665816,-0.4587447330153778,-0.13363680243492126,-0.382518470287323,-0.9142323732376099,0.0423257755693437,-0.047105545568687186,-0.22874626637633208,0.9714241011197763,0.020927533507347107,-0.29957178235054016,-0.7219948768615723,0.00013013184070587158,0.009591788053512573,-0.0285300612449646
2025-09-20T02:20:37Z,-0.07716957613747073,0.10556428334646299,-0.47320803342932655,-0.133634552359581,-0.3849203288555145,-0.9132240414619446,0.04222007694994334,-0.04980559479731574,-0.23588039451201165,0.9695861177846062,0.020939141511917114,-0.2870149314403534,-0.6648549437522888,0.0018875598907470703,0.020885109901428223,-0.026107490062713623
2025-09-20T02:20:37Z,-0.08161618507576598,0.1068946542674064,-0.4859551160348426,-0.13401000201702118,-0.3869182765483856,-0.9123242497444153,0.042008063626531054,-0.052384129509548905,-0.242165637716808,0.9679085381173285,0.013724647462368011,-0.287525475025177,-0.5994173288345337,0.002416253089904785,0.0326499342918396,-0.015645921230316162
2025-09-20T02:20:37Z,-0.08591540798048325,0.10808553634344627,-0.49743071617295936,-0.1346055269241333,-0.3886703550815582,-0.9114914536476135,0.04175030834328204,-0.05484667662202576,-0.24782124541751155,0.9663505226996143,0.009047512896358967,-0.26983585953712463,-0.5398899912834167,0.00905078649520874,0.03358927369117737,-0.015772640705108643
2025-09-20T02:20:37Z,-0.09003510897249888,0.10914693843599611,-0.5076197945440034,-0.1353996843099594,-0.3901975750923157,-0.9107210040092468,0.04146239985441664,-0.057178124233388736,-0.2528418604715174,0.9649261609917443,0.014268210157752037,-0.2539140582084656,-0.4684911072254181,0.010468140244483948,0.033172428607940674,-0.017519056797027588
2025-09-20T02:20:37Z,-0.09376736626408559,0.11027533406573965,-0.5164024479458172,-0.13623371720314026,-0.3916858434677124,-0.9099574685096741,0.04127555010855267,-0.059300423533819605,-0.2571708186231162,0.9636611687458457,0.025713440030813217,-0.22487682104110718,-0.40975669026374817,0.010059237480163574,0.023786336183547974,-0.020599663257598877
2025-09-20T02:20:37Z,-0.09729094540845583,0.11152168086484007,-0.5239085931206481,-0.13723324239253998,-0.39319872856140137,-0.9091544151306152,0.04119390159164658,-0.061310202722797344,-0.26087790873853456,0.9625417734951324,0.035804010927677155,-0.21336445212364197,-0.34395307302474976,0.006033867597579956,0.024311602115631104,-0.012914657592773438
2025-09-20T02:20:37Z,-0.10092846271126074,0.11281557335368263,-0.5300469317461192,-0.1387215554714203,-0.39467549324035645,-0.908288300037384,0.041148686198390044,-0.06335261026800972,-0.2639269592947464,0.9615798466623631,0.03890614956617355,-0.21305608749389648,-0.27688804268836975,0.0016540437936782837,0.02619299292564392,-0.012978613376617432
2025-09-20T02:20:37Z,-0.10463200421784136,0.11386077232143048,-0.5347623412792418,-0.1406836211681366,-0.3958490490913391,-0.9074754118919373,0.041009146939736035,-0.06536497941539267,-0.2662873127048117,0.9608000628709495,0.026998326182365417,-0.20803502202033997,-0.20138414204120636,0.0018217861652374268,0.027422577142715454,-0.02084803581237793
2025-09-20T02:20:37Z,-0.10787953104306781,0.11446044978359317,-0.5382624366756154,-0.1425962597131729,-0.39655420184135437,-0.9068688154220581,0.040747921305954476,-0.06707450205421259,-0.26804541160905815,0.9602043222752544,0.0012353342026472092,-0.16385823488235474,-0.153972789645195,0.009268313646316528,0.01851719617843628,-0.03918862342834473
2025-09-20T02:20:37Z,-0.11054975572035783,0.11446322362253726,-0.5411400841046324,-0.14418816566467285,-0.39668169617652893,-0.9065613150596619,0.040292953186831994,-0.06841483122389416,-0.2694807852717354,0.9597270742495205,-0.025025339797139168,-0.13272130489349365,-0.1303703486919403,0.00677335262298584,0.01159060001373291,-0.03906458616256714
2025-09-20T02:20:37Z,-0.11266912081391647,0.11392924061055412,-0.5435315115617124,-0.1454439014196396,-0.3962939977645874,-0.9065302610397339,0.03966772146459064,-0.06940898242584397,-0.2706602590519701,0.9593496536510084,-0.04181281849741936,-0.11229391396045685,-0.10466430336236954,0.004764527082443237,0.010410934686660767,-0.03076416254043579
2025-09-20T02:20:37Z,-0.11443024822205392,0.11320496589951265,-0.5456644916287682,-0.14645829796791077,-0.3957192599773407,-0.9066179990768433,0.03900649785378704,-0.07019960312357987,-0.27170362288274724,0.9590242408596672,-0.03937719389796257,-0.08761357516050339,-0.09321486204862595,0.005918651819229126,0.003983289003372192,-0.01989448070526123
2025-09-20T02:20:37Z,-0.11595618865888259,0.11278021647153337,-0.54775997628145,-0.14725708961486816,-0.3954163193702698,-0.9066208004951477,0.03852086774194365,-0.07091531988258161,-0.27272932225024804,0.9587000007230364,-0.020252812653779984,-0.08737100660800934,-0.10748884826898575,0.006226435303688049,-0.0024323463439941406,-0.007170379161834717
2025-09-20T02:20:37Z,-0.11727304277530302,0.11272219257228068,-0.5500299787530839,-0.14779923856258392,-0.39545565843582153,-0.9065154194831848,0.0382322014414635,-0.07158224921460127,-0.27384133139897343,0.9583449426675942,-0.00016928091645240784,-0.07760108262300491,-0.10872625559568405,0.011247798800468445,0.0019384920597076416,-0.0014102458953857422
2025-09-20T02:20:37Z,-0.11831576400237774,0.11330011080910507,-0.5520388193140139,-0.14813829958438873,-0.3960666060447693,-0.9061933159828186,0.03829436148930295,-0.07219765829400923,-0.2748355938475414,0.9580116618564878,0.01595071330666542,-0.061041682958602905,-0.11412516236305237,0.013495072722434998,-0.003023773431777954,-0.005269646644592285
2025-09-20T02:20:37Z,-0.1193574373558545,0.11388015559538807,-0.5540472781270237,-0.14847570657730103,-0.3966781497001648,-0.9058704972267151,0.03835647636411076,-0.07281299743805719,-0.27582950396203804,0.9576769051751756,0.03207070380449295,-0.044482287019491196,-0.11952407658100128,0.015740692615509033,-0.007985442876815796,-0.009129703044891357
2025-09-20T02:20:38Z,-0.11990613076756801,0.11494508027847548,-0.5565007519209835,-0.14821457862854004,-0.3977501392364502,-0.9054431319236755,0.03870185620391728,-0.07326663048880962,-0.27703687309890923,0.9572798580911319,0.044643353670835495,-0.04297349974513054,-0.1373230516910553,0.005614548921585083,-0.009623557329177856,-0.008983433246612549
2025-09-20T02:20:38Z,-0.12058181084181892,0.11625673559398651,-0.5591583137886988,-0.14799684286117554,-0.3990536630153656,-0.9049050211906433,0.039139237529378174,-0.07381942247142155,-0.2783491526943776,0.9568388319263783,0.049556270241737366,-0.060809891670942307,-0.13607802987098694,-0.0013351142406463623,-0.004107415676116943,-0.00808948278427124
2025-09-20T02:20:38Z,-0.12158079400222767,0.11748642954992637,-0.5616937936054467,-0.148109570145607,-0.4002748429775238,-0.9043470621109009,0.03949524340545602,-0.07451444645484603,-0.27960732000861255,0.9564033720250522,0.03915419429540634,-0.0744340792298317,-0.12410981208086014,-0.001811891794204712,0.0005010366439819336,-0.01295781135559082
2025-09-20T02:20:38Z,-0.12292319570997347,0.11831732188034551,-0.5639816465199815,-0.14862239360809326,-0.40111956000328064,-0.9038885235786438,0.03961957324686505,-0.07531502926185409,-0.28074525579276677,0.9560020554678337,0.01674589514732361,-0.08276384323835373,-0.10498399287462234,-0.0013761669397354126,0.00664907693862915,-0.015187501907348633
2025-09-20T02:20:38Z,-0.12431855819358822,0.11858781452536726,-0.56599830678981,-0.14928802847862244,-0.40143996477127075,-0.9036365747451782,0.039476585295792434,-0.07605885616519634,-0.2817424154809756,0.9556556902837816,-0.012728020548820496,-0.0857752338051796,-0.08803115785121918,0.0033277422189712524,0.007908612489700317,-0.01527494192123413
2025-09-20T02:20:38Z,-0.12574550366741594,0.11816084411726747,-0.5677119418508556,-0.15010422468185425,-0.4011101722717285,-0.903647780418396,0.039005391341982186,-0.07671549014217924,-0.28257985571483196,0.9553752593836228,-0.0400458388030529,-0.07070863246917725,-0.07787749171257019,0.006624013185501099,0.002563774585723877,-0.024221301078796387
2025-09-20T02:20:38Z,-0.1269577470971377,0.11738548361391285,-0.5693747092459869,-0.1507589966058731,-0.4004587233066559,-0.9038277268409729,0.038398742161717174,-0.07721972219490846,-0.28338042378243133,0.9551220601544969,-0.05042631924152374,-0.07176971435546875,-0.07787726074457169,0.0037450939416885376,-0.005901426076889038,-0.02175086736679077
2025-09-20T02:20:38Z,-0.128141542677651,0.1165358040340679,-0.5711941938615585,-0.1513471156358719,-0.39974352717399597,-0.9040459990501404,0.037753675952706914,-0.07770207454398856,-0.28425277997509224,0.9548494148931532,-0.05056537315249443,-0.07304668426513672,-0.08151300996541977,0.002177014946937561,-0.008060455322265625,-0.018009305000305176
2025-09-20T02:20:38Z,-0.12956664223096145,0.11571664576873798,-0.5728922218845529,-0.15218746662139893,-0.3990509510040283,-0.9042108654975891,0.037092720300409505,-0.07830047796672468,-0.28507145791299565,0.9545822959825523,-0.044110264629125595,-0.07215452939271927,-0.07203759998083115,0.003889426589012146,0.0002802908420562744,-0.007128715515136719
2025-09-20T02:20:38Z,-0.13070988124280664,0.11496479370114207,-0.5739910395273546,-0.15294300019741058,-0.3983989655971527,-0.904370903968811,0.03652685457586087,-0.07876174803151009,-0.2855996164707118,0.9544082746485674,-0.03807180002331734,-0.06834366917610168,-0.01968567818403244,0.008867636322975159,0.022349417209625244,0.007553696632385254
2025-09-20T02:20:38Z,-0.13180978459683598,0.11428577976189085,-0.5742319735269464,-0.15390360355377197,-0.3977845311164856,-0.9044783711433411,0.03603549967409863,-0.07919644889915137,-0.2857187232449016,0.9543552971362773,-0.02539055421948433,-0.03224216774106026,-0.005085667595267296,0.022656381130218506,0.010402321815490723,0.0010309219360351562
2025-09-20T02:20:38Z,-0.13206674140777158,0.1139255801141106,-0.5743323376308065,-0.15412591397762299,-0.39745762944221497,-0.9045842289924622,0.03582255049854429,-0.07927070013260952,-0.2857627605133572,0.9543439831987683,-0.012268904596567154,0.0031314603984355927,0.004434535279870033,0.020538195967674255,0.005087733268737793,-0.005937397480010986
2025-09-20T02:20:38Z,-0.13188582615347677,0.11369129714674647,-0.5739973344496809,-0.15407119691371918,-0.3972315788269043,-0.9046928286552429,0.03574961425496185,-0.07914574999038995,-0.2855941420415297,0.9544075957922304,-0.00332479365170002,0.020372072234749794,0.030275356024503708,0.011013999581336975,0.006226062774658203,-0.01207125186920166
2025-09-20T02:20:38Z,-0.1315262691661596,0.11331766569182213,-0.5721294591675792,-0.1543044000864029,-0.39682573080062866,-0.9048311710357666,0.035695953617859336,-0.07888884821836524,-0.28468744171406263,0.9547017099687259,-0.011965706944465637,0.028516914695501328,0.09715361893177032,0.007023558020591736,0.01183745265007019,-0.018882930278778076
2025-09-20T02:20:38Z,-0.13116600539882384,0.11294471901023556,-0.57026158727486,-0.15453672409057617,-0.3964194357395172,-0.9049696326255798,0.03564226677783864,-0.07863186184289925,-0.2837804884606391,0.9549948963675561,-0.020606620237231255,0.03666175529360771,0.16403189301490784,0.003032207489013672,0.017448365688323975,-0.025694608688354492
2025-09-20T02:20:38Z,-0.13062958560409874,0.1117959323490219,-0.5664967741723081,-0.15519653260707855,-0.3952328562736511,-0.905375599861145,0.03531580045346728,-0.07815043295686332,-0.28194574778562476,0.9555897836553697,-0.04889078438282013,0.06107286363840103,0.22263766825199127,0.006659314036369324,0.012392580509185791,-0.03905254602432251
2025-09-20T02:20:38Z,-0.12949885401464817,0.10986342167837834,-0.5616778963760111,-0.1556607037782669,-0.39328280091285706,-0.9061447978019714,0.03473609819589252,-0.07726095373330445,-0.27957720691589594,0.9563789128900428,-0.0802135169506073,0.10656946897506714,0.2764626741409302,0.009454146027565002,0.005883842706680298,-0.051461100578308105
2025-09-20T02:20:38Z,-0.1277205131816444,0.10710721315126663,-0.5558463909771962,-0.15586747229099274,-0.3905278444290161,-0.9072999954223633,0.03388543684909106,-0.07593602667199809,-0.27669228038380134,0.9573540090049831,-0.11136652529239655,0.13122832775115967,0.34160423278808594,0.002389773726463318,0.009958982467651367,-0.04800283908843994
2025-09-20T02:20:38Z,-0.12568999572482262,0.103582145305136,-0.5484766010469588,-0.15631961822509766,-0.3869892656803131,-0.908737301826477,0.03274978436178394,-0.07436750926143962,-0.27304649719691154,0.9585626807937447,-0.14035682380199432,0.14996793866157532,0.4296185076236725,0.0007524192333221436,0.014600753784179688,-0.04198175668716431
2025-09-20T02:20:38Z,-0.12334015375399508,0.09936585233731707,-0.5395687089373559,-0.15694724023342133,-0.38272562623023987,-0.9104332327842712,0.031369278385859865,-0.07253946911067154,-0.26863873045332803,0.9599933178177827,-0.16298767924308777,0.17055709660053253,0.4879719316959381,0.0055200159549713135,0.00893816351890564,-0.0387691855430603
2025-09-20T02:20:38Z,-0.12049142046832871,0.0946232823005466,-0.5299935566009559,-0.1573227494955063,-0.37791454792022705,-0.9123761057853699,0.02980877668575276,-0.07040666722701444,-0.2638866156786996,0.9615186360446629,-0.18244117498397827,0.20510390400886536,0.5236338376998901,0.011872619390487671,0.007116883993148804,-0.04005306959152222
2025-09-20T02:20:38Z,-0.1170296149473045,0.08948163551260475,-0.5194984935075895,-0.15740230679512024,-0.37265318632125854,-0.9145239591598511,0.028146322233553053,-0.06793072986838603,-0.25866996204285386,0.9631629939935976,-0.1968568116426468,0.2409134954214096,0.5859638452529907,0.01075732707977295,0.02256840467453003,-0.036334335803985596
2025-09-20T02:20:38Z,-0.11280830499431341,0.08414343237846816,-0.5074484471257915,-0.15721768140792847,-0.3670855462551117,-0.9168046712875366,0.02650998594648502,-0.06506164991272594,-0.25268489607317357,0.9649945540957626,-0.19297374784946442,0.2791753113269806,0.6558113694190979,0.012758925557136536,0.026819825172424316,-0.028637230396270752
2025-09-20T02:20:38Z,-0.1085816925909088,0.0796085700916413,-0.49302935066824893,-0.15764637291431427,-0.36207857728004456,-0.9187201261520386,0.025302548565761425,-0.06227841759575454,-0.24556704498878823,0.9670459830973909,-0.15756763517856598,0.26451563835144043,0.7124545574188232,0.006456583738327026,0.026999980211257935,-0.018397212028503418
2025-09-20T02:20:38Z,-0.10429145436390316,0.07513494809637392,-0.4785961755470706,-0.15799064934253693,-0.3570603132247925,-0.9206230640411377,0.024093487461388317,-0.05949121038713815,-0.2384334524717923,0.9690354297807956,-0.12216152250766754,0.24985598027706146,0.7690977454185486,6.981194019317627e-05,0.02716878056526184,-0.008169770240783691
2025-09-20T02:20:38Z,-0.0999383051460553,0.07072364778439019,-0.46414854397270355,-0.15825040638446808,-0.3520321249961853,-0.922512948513031,0.022882929805306085,-0.056700191478870274,-0.23128457150742518,0.9709627641489087,-0.0867554098367691,0.2351963222026825,0.8257408738136292,-0.006401494145393372,0.027327626943588257,0.0020446181297302246
2025-09-20T02:20:38Z,-0.09632535419795403,0.06752884971308883,-0.4468851860197703,-0.15992200374603271,-0.34787827730178833,-0.9237995743751526,0.022218563838192942,-0.05439215215488165,-0.22278968186141465,0.9730943371573656,-0.0578584223985672,0.23122462630271912,0.9054855704307556,-0.0012337863445281982,0.030277878046035767,-0.004430949687957764
2025-09-20T02:20:38Z,-0.09281023374712048,0.06489513762697564,-0.4286500271279907,-0.16191093623638153,-0.3440879285335541,-0.9248720407485962,0.02180441256515809,-0.052195812957239185,-0.21381763571665,0.9752344113804517,-0.028980722650885582,0.23879435658454895,0.914523184299469,0.004327133297920227,0.005296081304550171,-0.015901505947113037
2025-09-20T02:20:38Z,-0.0891765849100521,0.06353640785852256,-0.4115897637025428,-0.1633903831243515,-0.3414895534515381,-0.9255746603012085,0.02195793063848792,-0.05009509536472501,-0.20542514734773082,0.9771431654583322,0.011285325512290001,0.22666648030281067,0.8584349751472473,-0.0015620887279510498,-0.006845712661743164,-0.015483081340789795
2025-09-20T02:20:38Z,-0.08552054678638182,0.062239744209171666,-0.3945260237758271,-0.16482192277908325,-0.3388664126396179,-0.926284670829773,0.02210972720196837,-0.047990445857625325,-0.197016498892788,0.9789751914182284,0.051551371812820435,0.2145385891199112,0.8023467659950256,-0.007499203085899353,-0.01901218295097351,-0.015057146549224854
2025-09-20T02:20:38Z,-0.08248872586805861,0.062245352635279756,-0.37829884665246305,-0.1665356308221817,-0.33745670318603516,-0.9264927506446838,0.022787704071324827,-0.04632353454396858,-0.18903287324756365,0.9806126989367429,0.07895305752754211,0.1925363838672638,0.8083909153938293,-0.009332731366157532,-0.0021767616271972656,-0.013836383819580078
2025-09-20T02:20:38Z,-0.07961776633721165,0.06263672291360926,-0.36212015464479375,-0.16835172474384308,-0.3363398313522339,-0.9265706539154053,0.023613898685506104,-0.04476279055741453,-0.18106738122774363,0.98216756398795,0.09073978662490845,0.1955741047859192,0.7829875946044922,-0.0019852519035339355,-0.012639611959457397,-0.021339774131774902
2025-09-20T02:20:38Z,-0.07661542805646018,0.06344569721124603,-0.346977759284582,-0.16972693800926208,-0.3356437087059021,-0.9265722036361694,0.024610751027015487,-0.04317551382092755,-0.17360297545365683,0.9835609066535866,0.1073869839310646,0.1827034056186676,0.7159900069236755,0.0007257610559463501,-0.02514132857322693,-0.016300082206726074
2025-09-20T02:20:38Z,-0.07412486268844215,0.06487949111661276,-0.33303286380975505,-0.1712123155593872,-0.3355919122695923,-0.9263176918029785,0.025825082483378253,-0.04189438600750126,-0.16673220138968917,0.9847731868499413,0.13498952984809875,0.15886814892292023,0.6585868000984192,0.0014163106679916382,-0.022954970598220825,-0.0068381428718566895
2025-09-20T02:20:38Z,-0.07220594971735092,0.06693201695441033,-0.31967617233311174,-0.1730346381664276,-0.33612769842147827,-0.9257846474647522,0.027270102069756386,-0.04093700952132891,-0.16015793044250604,0.9858650295729672,0.15907059609889984,0.1273949295282364,0.6628866195678711,-0.0005010068416595459,-0.00525549054145813,-0.0039792656898498535
2025-09-20T02:20:38Z,-0.0703247480977957,0.06918372227995735,-0.3063723394403219,-0.1748569905757904,-0.33680596947669983,-0.9251955151557922,0.02879780961401628,-0.03999665575701328,-0.15360381873501502,0.9869026170758319,0.15993177890777588,0.14551734924316406,0.6340503096580505,0.008260607719421387,-0.010297536849975586,-0.019388854503631592
2025-09-20T02:20:38Z,-0.06826404497033627,0.07157872467946935,-0.29385292868797885,-0.17628227174282074,-0.3376573324203491,-0.9246145486831665,0.030382879450872056,-0.03897143773694766,-0.14742735544695174,0.9878376734292283,0.1594439595937729,0.1527239829301834,0.5924148559570312,0.010270163416862488,-0.012262552976608276,-0.016623973846435547
2025-09-20T02:20:38Z,-0.06599903900858554,0.07398940192535546,-0.2821147615491117,-0.17729435861110687,-0.33857011795043945,-0.9240871071815491,0.03196358576647687,-0.037840554687022285,-0.14162557337023765,0.9886802443698777,0.16016969084739685,0.15452668070793152,0.5632747411727905,0.009018242359161377,-0.009575366973876953,-0.01408851146697998
2025-09-20T02:20:38Z,-0.06375197439331692,0.0765873626354688,-0.27081441035643633,-0.17818951606750488,-0.33967119455337524,-0.9235106706619263,0.033615437480064764,-0.036721230783426644,-0.13603528545508048,0.9894523355992277,0.16833598911762238,0.15464350581169128,0.5424217581748962,0.006519943475723267,-0.012078404426574707,-0.010596275329589844
2025-09-20T02:20:38Z,-0.06141521136725419,0.07937801029515514,-0.26010022477061406,-0.17883041501045227,-0.34098735451698303,-0.9229015707969666,0.035346449818882374,-0.03556277847851933,-0.13072857207683686,0.9901494493961207,0.17994937300682068,0.14866118133068085,0.5015366077423096,0.0036353617906570435,-0.020511478185653687,-0.012222230434417725
2025-09-20T02:20:38Z,-0.059480297073265465,0.08254284945042313,-0.25018514829177146,-0.17961260676383972,-0.3427186608314514,-0.9221080541610718,0.03721233903803801,-0.03462384829907233,-0.125822523284068,0.9907497288500838,0.1947801113128662,0.13092029094696045,0.4637186527252197,-0.000235632061958313,-0.021004974842071533,-0.009902000427246094
2025-09-20T02:20:38Z,-0.057770146357270555,0.08603525688548826,-0.24092815854487962,-0.18041333556175232,-0.3448091745376587,-0.9211719036102295,0.039207390853313054,-0.03381103767154369,-0.12124469767857943,0.9912715003649297,0.20611344277858734,0.11192646622657776,0.45039692521095276,-0.0010021179914474487,-0.01221466064453125,-0.006367027759552002
2025-09-20T02:20:38Z,-0.0565234743503492,0.08966822828999663,-0.2316157088411671,-0.18164516985416412,-0.34699714183807373,-0.9201076030731201,0.04123920703133656,-0.033217235675097434,-0.11664498330735262,0.9917609164059477,0.20422351360321045,0.09851499646902084,0.44359034299850464,0.004813283681869507,-0.011175960302352905,-0.011602520942687988
2025-09-20T02:20:38Z,-0.05515038263376124,0.09298485319221478,-0.22327344262278875,-0.182504802942276,-0.34899234771728516,-0.9191824197769165,0.04310051070686647,-0.032546114271525296,-0.11251573753090519,0.992181015887035,0.18465183675289154,0.10294117033481598,0.4023354649543762,0.012235239148139954,-0.016370117664337158,-0.011606156826019287
2025-09-20T02:20:38Z,-0.05380466661139831,0.09631280948983571,-0.21493318670465622,-0.1833825260400772,-0.3509770631790161,-0.9182515740394592,0.04496092411509301,-0.03187429016927197,-0.10838414067057307,0.9925801467192097,0.16508015990257263,0.10736733675003052,0.3610805869102478,0.01967523992061615,-0.021574854850769043,-0.011615514755249023
2025-09-20T02:20:38Z,-0.052480848712680044,0.09914820502426717,-0.207684676703814,-0.18399955332279205,-0.3526320159435272,-0.9174937605857849,0.04655358094599923,-0.031198792205389705,-0.10478599451227487,0.9929144672328263,0.1553190052509308,0.08598178625106812,0.3473014235496521,0.011238709092140198,-0.013132244348526001,-0.0062067508697509766
2025-09-20T02:20:38Z,-0.05174969123409913,0.10184011642283693,-0.2003103586835098,-0.18519021570682526,-0.35412120819091797,-0.9166802763938904,0.04804251391244403,-0.03079642619524259,-0.10113503932809752,0.9932346038825812,0.15425410866737366,0.06627361476421356,0.37390562891960144,0.0033203214406967163,-0.0016200244426727295,-0.004800975322723389
2025-09-20T02:20:38Z,-0.05146650966247314,0.10464552575146427,-0.19236080539617653,-0.18693110346794128,-0.35561951994895935,-0.9157463908195496,0.04957238095420493,-0.030597162058569542,-0.09720846992906984,0.9935576195444902,0.1617053747177124,0.03966442123055458,0.40329709649086,0.004231438040733337,-0.00393909215927124,-0.0023778676986694336
2025-09-20T02:20:38Z,-0.0515724565452483,0.10751723423942103,-0.18402728597681428,-0.18911698460578918,-0.35710668563842773,-0.9147183299064636,0.05112198249038464,-0.030572738763756466,-0.09310016695163709,0.9938733373106249,0.16394713521003723,0.04205743968486786,0.40407615900039673,0.012998124584555626,-0.01161523163318634,-0.011362362653017044
2025-09-20T02:20:38Z,-0.05140070089070309,0.11030443668705248,-0.17597072892053195,-0.19096995890140533,-0.3585355579853058,-0.9137738943099976,0.052638240096806135,-0.03040146912643187,-0.08912038023591609,0.994164235713239,0.15769147872924805,0.0500030480325222,0.39140671491622925,0.014080390334129333,-0.012763351202011108,-0.012131929397583008
2025-09-20T02:20:39Z,-0.05116459772265276,0.11293984482221243,-0.16815264381433778,-0.1926974356174469,-0.35984060168266296,-0.9128978252410889,0.05407747389929571,-0.030186644527428492,-0.08525461487870066,0.9944325211980118,0.14704173803329468,0.054857317358255386,0.3762386441230774,0.011840283870697021,-0.012414038181304932,-0.009730279445648193
2025-09-20T02:20:39Z,-0.05097058846322325,0.11536482471009389,-0.16058093442785648,-0.19439642131328583,-0.36097079515457153,-0.912091076374054,0.05540563639216855,-0.02998050261221359,-0.08150917770273923,0.9946796992219334,0.1342359036207199,0.04394865781068802,0.36250004172325134,0.007541686296463013,-0.012941360473632812,-0.006983757019042969
2025-09-20T02:20:39Z,-0.05099636401587361,0.11752459420953122,-0.15336418089696077,-0.1962030529975891,-0.36189380288124084,-0.9113381505012512,0.05658711251649426,-0.029874168779966678,-0.07794278407087596,0.9949022135635164,0.11929833889007568,0.03701985999941826,0.342070996761322,0.005343019962310791,-0.018466025590896606,-0.011548042297363281
2025-09-20T02:20:39Z,-0.05099721913128986,0.11944913045569015,-0.14663363499721135,-0.19786155223846436,-0.3626593351364136,-0.910675048828125,0.05764509012650821,-0.02975288717501742,-0.07461451045196425,0.9951002473759877,0.10404515266418457,0.03934613987803459,0.3128291368484497,0.005424425005912781,-0.025689035654067993,-0.018269479274749756
2025-09-20T02:20:39Z,-0.05086132912169694,0.12111365989998511,-0.14059877162955495,-0.19921965897083282,-0.3632792830467224,-0.9101316928863525,0.05856800040622698,-0.029568251243673127,-0.07162516598271901,0.99527149105099,0.0885254442691803,0.04647331312298775,0.2762492299079895,0.006851658225059509,-0.02837321162223816,-0.022257983684539795
2025-09-20T02:20:39Z,-0.050429841999778215,0.12246603600441852,-0.1352720254340215,-0.20013272762298584,-0.3637111186981201,-0.9097588062286377,0.05933467111740301,-0.0292419592953548,-0.06897567937465246,0.9954228480779621,0.07070327550172806,0.057038597762584686,0.24706538021564484,0.005630195140838623,-0.022318989038467407,-0.019222617149353027
2025-09-20T02:20:39Z,-0.04989968375642537,0.12341646613785931,-0.1302634893761378,-0.20088031888008118,-0.3638155162334442,-0.9095523357391357,0.05989854533761775,-0.0288594994465764,-0.06647681544908346,0.9955702864938996,0.04902610927820206,0.05335433408617973,0.24606893956661224,0.003524288535118103,-0.00788542628288269,-0.010302543640136719
2025-09-20T02:20:39Z,-0.04952238008191107,0.12367280223398025,-0.12534038805163114,-0.2017546445131302,-0.36328935623168945,-0.9095690846443176,0.06010913101029724,-0.028531938852467353,-0.0640173269762116,0.9957281240845732,0.027096286416053772,0.056933894753456116,0.23978760838508606,0.0040000081062316895,-0.010381370782852173,-0.014929533004760742
2025-09-20T02:20:39Z,-0.049146383763457216,0.12393096017648175,-0.12041724677981988,-0.20262643694877625,-0.3627590239048004,-0.9095869660377502,0.06031932668946387,-0.028204218908047318,-0.06155744480307014,0.9958798516386204,0.005166463553905487,0.0605134554207325,0.23350627720355988,0.0044732242822647095,-0.012881487607955933,-0.019555330276489258
2025-09-20T02:20:39Z,-0.04852894889049128,0.12370057999963305,-0.11573746663258554,-0.20322349667549133,-0.36181238293647766,-0.9098307490348816,0.06028868450557854,-0.0277490358287223,-0.059206011209580106,0.9960370551376958,-0.014008432626724243,0.06520207226276398,0.22493529319763184,0.002804681658744812,-0.010084778070449829,-0.0135306715965271
2025-09-20T02:20:39Z,-0.04785241860674982,0.12313739129206142,-0.11120001198308388,-0.20373386144638062,-0.36057716608047485,-0.9102069139480591,0.060090176936051364,-0.027260015650533004,-0.05691995718446462,0.9961958046091139,-0.025359563529491425,0.06119351089000702,0.2237003892660141,0.0002563297748565674,-0.007078766822814941,-0.00407642126083374
2025-09-20T02:20:39Z,-0.04725294358279366,0.12240321014824034,-0.10667563950753582,-0.20431038737297058,-0.35918164253234863,-0.9106293320655823,0.059802267545487765,-0.02680637679782709,-0.054640755987156946,0.996353069803467,-0.027865495532751083,0.05513268709182739,0.22470995783805847,-0.0012883692979812622,-0.007690846920013428,0.0004431009292602539
2025-09-20T02:20:39Z,-0.0467721964939323,0.12171693198569107,-0.10225677953972814,-0.20496471226215363,-0.357841819524765,-0.9110097289085388,0.059531968410719775,-0.026417646635476494,-0.0524179330010714,0.996499034145645,-0.023912806063890457,0.04491926357150078,0.2148669958114624,-0.003203079104423523,-0.01353377103805542,-0.0033295750617980957
2025-09-20T02:20:39Z,-0.04648022715681194,0.12111688722582471,-0.09808744894576304,-0.20572537183761597,-0.3566167652606964,-0.9113186001777649,0.05929521061412251,-0.02613374131851621,-0.050325696427400715,0.9966284712240698,-0.01825466938316822,0.03347112238407135,0.20145994424819946,-0.006566286087036133,-0.022110074758529663,-0.017496168613433838
2025-09-20T02:20:39Z,-0.046092832261845976,0.1206206374148678,-0.09424405227934558,-0.20631520450115204,-0.35553595423698425,-0.9116075038909912,0.05910734670682309,-0.025815361787865684,-0.04839389040489591,0.9967436652566386,-0.015385821461677551,0.047848500311374664,0.18416127562522888,-0.00808773934841156,-0.02936360239982605,-0.03332829475402832
2025-09-20T02:20:39Z,-0.04545690450522325,0.12021550164044044,-0.09074379189264065,-0.20659111440181732,-0.354591429233551,-0.9119128584861755,0.05896531325245581,-0.02538602863011278,-0.04662653757772565,0.9968473385199905,-0.011526036076247692,0.06007220596075058,0.1669178605079651,-0.008603021502494812,-0.027587056159973145,-0.02864682674407959
2025-09-20T02:20:39Z,-0.044608670534248517,0.12000011460963882,-0.08750469246472249,-0.20660491287708282,-0.353861540555954,-0.9121931791305542,0.058918057376688635,-0.02486312708426004,-0.044984889914064456,0.9969387674620453,0.0015247222036123276,0.06362667679786682,0.1485445201396942,-0.004969954490661621,-0.02350202202796936,-0.01135951280593872
2025-09-20T02:20:39Z,-0.04376834631686144,0.12019537294386394,-0.0847193224122422,-0.20650802552700043,-0.35358208417892456,-0.9123234748840332,0.059068287719544206,-0.02436614289147679,-0.04357353476080213,0.9970048188929885,0.0255095474421978,0.04952909052371979,0.12244926393032074,-0.0015107691287994385,-0.020839184522628784,0.005774199962615967
2025-09-20T02:20:39Z,-0.0432932566064711,0.12091215506998036,-0.08242162792026109,-0.2066175937652588,-0.35386162996292114,-0.912190318107605,0.059463688790273056,-0.02407568794363413,-0.042420906882466324,0.9970381099094412,0.04868797957897186,0.028704961761832237,0.09967651963233948,-0.0005865246057510376,-0.018728911876678467,0.008285999298095703
2025-09-20T02:20:39Z,-0.04305701211593294,0.12201469383799689,-0.08037327600747797,-0.2068784236907959,-0.35453611612319946,-0.9118692278862,0.06004291725332138,-0.023918379396323488,-0.04140320834596641,0.9970499320127401,0.06310006976127625,0.01986001990735531,0.096352219581604,0.00038518011569976807,-0.013216644525527954,-0.0003370046615600586
2025-09-20T02:20:39Z,-0.04312770503130426,0.12328608324607335,-0.07824320410547363,-0.2074355185031891,-0.35535091161727905,-0.9114254117012024,0.060700831958030506,-0.023913633362153894,-0.040355562380880006,0.9970531436371101,0.06911525875329971,0.007203481160104275,0.1040230542421341,-0.0003233999013900757,-0.009751230478286743,-0.008975625038146973
2025-09-20T02:20:39Z,-0.043241198310431314,0.12459994110125475,-0.07603347242045734,-0.2080492228269577,-0.35618990659713745,-0.9109578728675842,0.06138006439745026,-0.023927170623489445,-0.039269993574409676,0.9970545603127324,0.06781046092510223,0.008892240934073925,0.10806101560592651,0.0025949478149414062,-0.011214226484298706,-0.01669132709503174
2025-09-20T02:20:39Z,-0.04334859682485985,0.12585647697332517,-0.0739619600202316,-0.2086242437362671,-0.3569977879524231,-0.9105100631713867,0.06202925123603641,-0.0239394515933934,-0.03825269030683641,0.9970536697439499,0.06711595505475998,0.008101084269583225,0.10033991932868958,0.003428637981414795,-0.012349307537078857,-0.01572585105895996
2025-09-20T02:20:39Z,-0.04345866503394992,0.1271127621836723,-0.07188996458430826,-0.20920094847679138,-0.3578038513660431,-0.9100611805915833,0.0626783345668475,-0.02395171138828037,-0.037235324558262964,0.9970513148263341,0.06642144918441772,0.007309927139431238,0.09261883050203323,0.004264071583747864,-0.01348617672920227,-0.014761388301849365
2025-09-20T02:20:39Z,-0.0434988002812297,0.12833961855849554,-0.06996648924748063,-0.20967818796634674,-0.3586064577102661,-0.9096353650093079,0.06331230210836908,-0.023931985516259066,-0.0362896010292141,0.9970465857427129,0.06270363926887512,0.01481841504573822,0.08648858964443207,0.007903113961219788,-0.012958705425262451,-0.015535891056060791
2025-09-20T02:20:39Z,-0.042729596514691666,0.12911019427064646,-0.06821161994822404,-0.20938557386398315,-0.35901758074760437,-0.909540593624115,0.06373109039814699,-0.023505523304583713,-0.035397748299371264,0.9970620930364023,0.050543494522571564,0.031195029616355896,0.08808791637420654,0.009565204381942749,-0.012249976396560669,-0.015458881855010986
2025-09-20T02:20:39Z,-0.041961674806253575,0.1298821527490526,-0.06645718839114931,-0.20909374952316284,-0.35942915081977844,-0.9094451665878296,0.06414982811069679,-0.023079032539205516,-0.034505862993600846,0.9970764441182705,0.038383349776268005,0.04757164418697357,0.08968724310398102,0.01122806966304779,-0.011540740728378296,-0.015382528305053711
2025-09-20T02:20:39Z,-0.04119505792007363,0.13065540386287516,-0.06470318057092969,-0.208802729845047,-0.35984110832214355,-0.9093490839004517,0.06456847141227263,-0.02265252257836098,-0.03361393986082685,0.9970896348212115,0.026223205029964447,0.06394825875759125,0.0912865623831749,0.012891754508018494,-0.010831117630004883,-0.01530677080154419
2025-09-20T02:20:39Z,-0.040154843855551035,0.13115031263017435,-0.06286178225230983,-0.20828747749328613,-0.35998207330703735,-0.9094114899635315,0.06485306091389784,-0.0220818863963893,-0.032666755125997794,0.9971154313853791,0.021577171981334686,0.0735555961728096,0.09622520953416824,0.01284712553024292,-0.011956661939620972,-0.013284862041473389
2025-09-20T02:20:39Z,-0.03892803545147555,0.13156117989146515,-0.06085583132866518,-0.2076423019170761,-0.3600170910358429,-0.9095451235771179,0.06509945040340455,-0.021411142379780975,-0.03163043197607287,0.9971474592591607,0.023344656452536583,0.07682272791862488,0.09903273731470108,0.012952297925949097,-0.014365822076797485,-0.011933743953704834
2025-09-20T02:20:39Z,-0.037696874536162696,0.1320425609113013,-0.05879776367340678,-0.20700384676456451,-0.360106885433197,-0.9096551537513733,0.06538030709944227,-0.020737053387120657,-0.030568282755989405,0.997176442862913,0.029312655329704285,0.07101758569478989,0.101069375872612,0.010220810770988464,-0.016675055027008057,-0.009891748428344727
2025-09-20T02:20:39Z,-0.03656986771318042,0.13264333396769598,-0.05675644456949613,-0.20645393431186676,-0.3603079319000244,-0.9097004532814026,0.065717646821585,-0.020116518162061205,-0.029518544245991454,0.9971986337594727,0.03294680267572403,0.063313789665699,0.09687914699316025,0.008934244513511658,-0.019197404384613037,-0.0097007155418396
2025-09-20T02:20:39Z,-0.03565154533888369,0.13326816186095,-0.05486685998204742,-0.20605714619159698,-0.36055609583854675,-0.909692108631134,0.06606130618298475,-0.019604709931906737,-0.028551184631083526,0.9972142661027665,0.033234767615795135,0.050925396382808685,0.08440043032169342,0.007307037711143494,-0.02106049656867981,-0.008412778377532959
2025-09-20T02:20:39Z,-0.034974335295093174,0.13385183580715274,-0.05333058162721363,-0.20579642057418823,-0.3608264923095703,-0.9096439480781555,0.06637679814268517,-0.019223711808934354,-0.027767372449591172,0.9972228616719954,0.026657920330762863,0.03318900987505913,0.05867433547973633,0.006390780210494995,-0.02348455786705017,-0.006348371505737305
2025-09-20T02:20:39Z,-0.034682702637698334,0.1342841230550219,-0.05235319095559717,-0.2057562917470932,-0.36105403304100037,-0.9095627069473267,0.06660572094348124,-0.019051250845841017,-0.027273710157302917,0.9972245228611086,0.01592540368437767,0.006514497101306915,0.036961693316698074,0.0032208412885665894,-0.021041691303253174,-0.003482997417449951
2025-09-20T02:20:39Z,-0.03489593002256276,0.13454827083439544,-0.051696537801026565,-0.20610171556472778,-0.36118268966674805,-0.9094334244728088,0.06674081386115212,-0.019138950279357116,-0.02695546363453789,0.997222479030896,0.008890723809599876,-0.0155146773904562,0.02822880446910858,0.0026471316814422607,-0.015073955059051514,-0.0044381022453308105
2025-09-20T02:20:39Z,-0.03537057843283664,0.13472637982904684,-0.05097488279964747,-0.2067011445760727,-0.36122119426727295,-0.9092820882797241,0.06683021220316596,-0.019353691268987765,-0.02661289382496248,0.9972215823130095,0.006348735652863979,-0.02547394298017025,0.039672985672950745,0.004236102104187012,-0.00867241621017456,-0.007316648960113525
2025-09-20T02:20:39Z,-0.035784519803864115,0.13488000568899342,-0.04994914004114133,-0.20731711387634277,-0.3611845374107361,-0.9091563820838928,0.06691132812758392,-0.01952763164528026,-0.02611651791148763,0.9972259090302027,0.008222676813602448,-0.009592130780220032,0.044340550899505615,0.006332382559776306,-0.011752933263778687,-0.012558281421661377
2025-09-20T02:20:39Z,-0.036198636146047077,0.13503325480592546,-0.04892330741751454,-0.20793302357196808,-0.3611472547054291,-0.909030556678772,0.06699244819959875,-0.019701571011645908,-0.02562013354401965,0.9972299340785382,0.010096617043018341,0.0062896814197301865,0.049008116126060486,0.008428573608398438,-0.014834076166152954,-0.01780003309249878
2025-09-20T02:20:39Z,-0.03622784511647241,0.13522745765237806,-0.047989438442276294,-0.2081766426563263,-0.3611631691455841,-0.908968448638916,0.06709811217499634,-0.01968705740377012,-0.025157065443016467,0.9972349004565996,0.009851121343672276,0.015452655032277107,0.03780194744467735,0.007734969258308411,-0.016988635063171387,-0.016943752765655518
2025-09-20T02:20:39Z,-0.03602966933812018,0.1353798651696438,-0.04735781337588113,-0.2081429660320282,-0.36119312047958374,-0.9089642763137817,0.06718278639098155,-0.019568758607292264,-0.024836723219291975,0.9972395438296867,0.004867559298872948,0.014241406694054604,0.02401970699429512,0.00531354546546936,-0.01527106761932373,-0.013676226139068604
2025-09-20T02:20:39Z,-0.0358901396111281,0.135430743830994,-0.047011571200841276,-0.20809683203697205,-0.3611795902252197,-0.9089801907539368,0.06721326262694964,-0.019488119921260916,-0.02465980653327605,0.9972434856634086,-0.0019663809798657894,0.004145513288676739,0.01293419860303402,0.0027916133403778076,-0.012058764696121216,-0.01176440715789795
2025-09-20T02:20:39Z,-0.035902776090381255,0.1353056474957913,-0.046811866341586926,-0.20815685391426086,-0.36103031039237976,-0.9090257883071899,0.06715267285026387,-0.01948632468121116,-0.024559632764198387,0.9972500839155847,-0.00907927006483078,-0.00232423422858119,0.008835689164698124,0.00292128324508667,-0.010230213403701782,-0.01316756010055542
2025-09-20T02:20:39Z,-0.03596534436561056,0.13512334892994612,-0.046665740191733744,-0.20825041830539703,-0.3608379364013672,-0.9090807437896729,0.06706242679282741,-0.01951060593824831,-0.024487380468128907,0.9972574490458957,-0.008697869256138802,-0.0021432368084788322,0.007347356528043747,0.005074694752693176,-0.010410666465759277,-0.013966739177703857
2025-09-20T02:20:39Z,-0.036000708651231936,0.1350127285554148,-0.04651756184372745,-0.2083187848329544,-0.36071082949638367,-0.9091154932975769,0.06700828002585198,-0.019522055409552982,-0.02441377459849372,0.997262648485017,-0.0013840263709425926,-0.001694546896032989,0.00886495504528284,0.005479037761688232,-0.010890811681747437,-0.012591838836669922
2025-09-20T02:20:39Z,-0.03600479979908626,0.13505405448739802,-0.04629707135699617,-0.20837374031543732,-0.36071035265922546,-0.9091030955314636,0.06703098969203428,-0.019517159936411857,-0.024304306808500525,0.9972638924340037,0.006042943801730871,0.002981074620038271,0.013219562359154224,0.005724862217903137,-0.011474400758743286,-0.012329638004302979
2025-09-20T02:20:39Z,-0.03596294992851122,0.13526168865076102,-0.04595340160289484,-0.20841366052627563,-0.36084070801734924,-0.9090421795845032,0.06713839222760791,-0.019487028943078886,-0.02413324230508989,0.9972613224919388,0.01132968906313181,0.007952840998768806,0.014300242066383362,0.005851998925209045,-0.013201773166656494,-0.013006269931793213
2025-09-20T02:20:39Z,-0.03579490269456534,0.13553491340956617,-0.04568862980571919,-0.2083195149898529,-0.36104491353034973,-0.9089826941490173,0.06727923109706209,-0.01939729340751913,-0.02399780376764158,0.9972568879476545,0.014537857845425606,0.010508397594094276,0.008809407241642475,0.00554327666759491,-0.01584601402282715,-0.013074994087219238
2025-09-20T02:20:39Z,-0.03557222819160096,0.13579377245734467,-0.04561586324959514,-0.2081308662891388,-0.3612693250179291,-0.9089367389678955,0.06741168348815273,-0.019286601303277594,-0.023956124518719573,0.9972511240379752,0.012061117216944695,0.008880920708179474,-0.0004574926570057869,0.003964707255363464,-0.016933679580688477,-0.011987924575805664
2025-09-20T02:20:39Z,-0.03545697183613291,0.1359651160628092,-0.045743998457687514,-0.20799385011196136,-0.3614485263824463,-0.9088968634605408,0.06749727151757563,-0.01923530152433363,-0.024017512628072203,0.9972448644735457,0.004571644589304924,0.0002756258472800255,-0.009949414990842342,0.003048226237297058,-0.015142709016799927,-0.01150590181350708
2025-09-20T02:20:40Z,-0.03549805047428667,0.1359689195957236,-0.04604073860543441,-0.20796148478984833,-0.3615036606788635,-0.9088823795318604,0.06749581688336767,-0.019265839842099022,-0.02416689054209966,0.9972407678583244,-0.005259578116238117,-0.008101679384708405,-0.014018088579177856,0.003157675266265869,-0.012089431285858154,-0.011864423751831055
2025-09-20T02:20:40Z,-0.03549180557206514,0.13578531942112115,-0.046353542717209546,-0.20788469910621643,-0.3613899052143097,-0.9089451432228088,0.06740133220481401,-0.019271272402032722,-0.02432117172510691,0.9972432238064698,-0.014067914336919785,-0.003988000098615885,-0.012375649064779282,0.004605308175086975,-0.01192501187324524,-0.013577699661254883
2025-09-20T02:20:40Z,-0.03544113349596198,0.1355084825191504,-0.046769362986243325,-0.2077445387840271,-0.36120864748954773,-0.9090492129325867,0.067259901080859,-0.019256956973416433,-0.02452457360674685,0.9972480639879866,-0.013970562256872654,-0.0013217476662248373,-0.017642298713326454,0.00494810938835144,-0.013689965009689331,-0.012363314628601074
2025-09-20T02:20:40Z,-0.0353905751923273,0.13523167702519806,-0.0471851513374297,-0.20760443806648254,-0.3610273599624634,-0.9091532230377197,0.06711849162649362,-0.019242638611530704,-0.02472797308560537,0.9972528458442793,-0.013873210176825523,0.0013445049989968538,-0.022908948361873627,0.005290970206260681,-0.015454977750778198,-0.011148989200592041
2025-09-20T02:20:40Z,-0.0353088775832949,0.13499669169143427,-0.047699868568260674,-0.20741219818592072,-0.36090150475502014,-0.909247100353241,0.06699738431269903,-0.019216521057574106,-0.024980003907266023,0.9972551662118928,-0.014037217944860458,0.0010758525459095836,-0.025405243039131165,0.003984719514846802,-0.014913082122802734,-0.01062929630279541
2025-09-20T02:20:40Z,-0.03522996492694753,0.1346830297831042,-0.04825364624843522,-0.20721426606178284,-0.3607102632522583,-0.909368097782135,0.06683664744787952,-0.019192134946848675,-0.025250987807058492,0.9972596053270621,-0.020100530236959457,-0.002948947250843048,-0.023728573694825172,0.0026950091123580933,-0.012272000312805176,-0.010565757751464844
2025-09-20T02:20:40Z,-0.03524555160222365,0.13420465556119232,-0.04880466565454068,-0.20710493624210358,-0.3603675365447998,-0.9095288515090942,0.06659261251561835,-0.01921278123293911,-0.0255224501959597,0.9972686243743426,-0.02900390326976776,-0.00552169606089592,-0.021716035902500153,0.002493947744369507,-0.010678350925445557,-0.011595547199249268
2025-09-20T02:20:40Z,-0.035247174231267255,0.1334853795442363,-0.04925918625465861,-0.20700864493846893,-0.3597872257232666,-0.9097805023193359,0.06622953907900071,-0.019220309802322273,-0.025743411258354977,0.9972870635420564,-0.04228726401925087,-0.0010245610028505325,-0.017230074852705002,0.004750728607177734,-0.009778112173080444,-0.01410365104675293
