timestamp,attitude_roll,attitude_pitch,attitude_yaw,gravity_x,gravity_y,gravity_z,quaternion_x,quaternion_y,quaternion_z,quaternion_w,rotation_rate_x,rotation_rate_y,rotation_rate_z,user_acceleration_x,user_acceleration_y,user_acceleration_z
2025-09-20T01:56:23Z,0.000451044525654087,0.01312340345973807,-0.0007703469482203042,-0.10454413294792175,-0.28729647397994995,-0.9521193504333496,0.006561741406153725,0.0002229900323522966,-0.00038368539583426406,0.999978288778296,0.007182520814239979,0.011608722619712353,-0.017096977680921555,0.0017645061016082764,0.0007452964782714844,-0.007849633693695068
2025-09-20T01:56:23Z,0.0006288944735815963,0.013298144936657076,-0.0011070141173371675,-0.10428231954574585,-0.2874981760978699,-0.9520871639251709,0.006649196547425791,0.00031075996859674564,-0.0005514040318498234,0.9999776372794771,0.004213019274175167,0.005793165881186724,-0.010686689987778664,0.002065606415271759,-0.0002860128879547119,-0.007413387298583984
2025-09-20T01:56:23Z,0.0006821814995183065,0.013445315745846906,-0.0012984870549271885,-0.10417899489402771,-0.28765836358070374,-0.9520500898361206,0.006722827216625253,0.00033671837169693816,-0.0006469357873008011,0.9999770845689361,0.007069423329085112,-0.001853868830949068,-0.0026486320421099663,0.0017398372292518616,-0.002134084701538086,-0.006896913051605225
2025-09-20T01:56:23Z,0.0005857158746863674,0.01371577288259027,-0.0013030721135848396,-0.1042696163058281,-0.28791630268096924,-0.9519622325897217,0.006858022181439195,0.00028838287762422563,-0.0006495123330479664,0.9999761665603082,0.0160264540463686,-0.009482411667704582,0.006096425466239452,0.00011979043483734131,-0.001752704381942749,-0.00668179988861084
2025-09-20T01:56:23Z,0.00033518009937845227,0.014034190458384884,-0.0010798818289071436,-0.10456947982311249,-0.28819599747657776,-0.9518446922302246,0.0070171274202138175,0.00016379712215196742,-0.0005387516334535606,0.9999751623607044,0.02037660963833332,-0.01617422327399254,0.01318914070725441,-0.0004529431462287903,-0.0026085078716278076,-0.009028434753417969
2025-09-20T01:56:23Z,-9.324693418822871e-07,0.014429163930866112,-0.0007757382738136266,-0.1049729734659195,-0.28853997588157654,-0.9516960382461548,0.00721451934141602,-3.2645126792877144e-06,-0.00038786243343727933,0.9999738047024461,0.018147120252251625,-0.01600336655974388,0.014855582267045975,0.0007303357124328613,-0.002711951732635498,-0.01371908187866211
2025-09-20T01:56:23Z,-0.00028188060256801483,0.0146297418052876,-0.00042863383611183866,-0.10533570498228073,-0.28869444131851196,-0.9516091346740723,0.0073147755762764995,-0.00014250422052346676,-0.0002153421419100466,0.9999731651585557,0.0061889346688985825,-0.011142894625663757,0.017502229660749435,0.0009501874446868896,-0.0009510517120361328,-0.016379356384277344
2025-09-20T01:56:23Z,-0.00032093547574748953,0.01473109822560261,-4.099036376138796e-05,-0.10547935962677002,-0.28875014185905457,-0.951576292514801,0.007365479457164389,-0.0001606143484403193,-2.1676549054484363e-05,0.9999728168615344,0.005055825226008892,-0.004984183236956596,0.02198939025402069,-0.0020125359296798706,-0.0031615793704986572,-0.01382988691329956
2025-09-20T01:56:23Z,-0.0005608353356303125,0.014907909521424565,0.0002948421413128502,-0.1057998463511467,-0.2888830304145813,-0.951500415802002,0.007453927558739999,-0.0002793110430897994,0.0001453267839432685,0.9999720542988491,0.011418093927204609,-0.0062075406312942505,0.010937504470348358,-0.002541959285736084,-0.009356915950775146,-0.01107943058013916
2025-09-20T01:56:23Z,-0.0006476788788133571,0.015259383842632536,0.00044517556016442696,-0.10592370480298996,-0.28920164704322815,-0.9513897895812988,0.0076296901394173776,-0.0003221317717856505,0.00022011053801112323,0.9999707191055556,0.02151259034872055,-0.0014605647884309292,-0.0012306282296776772,-0.00015495717525482178,-0.012553632259368896,-0.011547863483428955
2025-09-20T01:56:23Z,-0.0005975747154986689,0.01565883424149624,0.0003391859120288775,-0.10584686696529388,-0.2895928621292114,-0.95127934217453,0.007829387700566926,-0.0002974504044937957,0.0001672484502677793,0.999969245517262,0.0234823077917099,-0.001309048617258668,-0.00945309828966856,2.9280781745910645e-05,-0.009753316640853882,-0.011668026447296143
2025-09-20T01:56:23Z,-0.0004852872309925079,0.01607589505068256,1.291822311902748e-06,-0.10564717650413513,-0.29002514481544495,-0.9511698484420776,0.008037861328692946,-0.00024263059615380048,-1.3044456392676967e-06,0.9999676121471822,0.01701265573501587,0.003546918975189328,-0.018923791125416756,-0.0011867061257362366,-0.008413642644882202,-0.012648999691009521
2025-09-20T01:56:23Z,-0.0005038223781911194,0.016456887165101106,-0.0005106690211015416,-0.10552410036325455,-0.2904413640499115,-0.9510565400123596,0.008228286235198848,-0.0002540036431241716,-0.00025739868054272774,0.9999660385095258,0.01581389084458351,-0.0006945708300918341,-0.029018469154834747,-0.0025659650564193726,-0.009319037199020386,-0.009693562984466553
2025-09-20T01:56:23Z,-0.000656579322369661,0.01693808163880332,-0.001193707520751902,-0.1054815948009491,-0.29097065329551697,-0.9508994221687317,0.008468742190287298,-0.0003333325621634629,-0.0005996125894820809,0.9999638441211535,0.021182944998145103,-0.01316404901444912,-0.03880170360207558,-0.003314077854156494,-0.01061856746673584,-0.008128106594085693
2025-09-20T01:56:23Z,-0.0008720712424422221,0.01748161675081879,-0.0021730551151586193,-0.1054171621799469,-0.29159003496170044,-0.9507168531417847,0.008740218181797679,-0.00044551574358423087,-0.001090297093547911,0.999961013250188,0.027989838272333145,-0.014080336317420006,-0.05884476751089096,-0.0007377415895462036,-0.01616191864013672,-0.011207818984985352
2025-09-20T01:56:23Z,-0.0009943255764082932,0.01817115075235078,-0.0037904362034700666,-0.10508839040994644,-0.2924143373966217,-0.9505000114440918,0.009084491753527255,-0.0005143603136908421,-0.0018996556619406523,0.999956687502677,0.036981917917728424,-0.006219861097633839,-0.10018382966518402,-2.2277235984802246e-05,-0.02453070878982544,-0.013602197170257568
2025-09-20T01:56:23Z,-0.0012681989108691133,0.0190572084824063,-0.006494340187672726,-0.10460416227579117,-0.29353705048561096,-0.9502073526382446,0.009526349946713782,-0.0006650078285090382,-0.00325305861783913,0.9999490081250548,0.04946780949831009,-0.024280577898025513,-0.16985327005386353,-0.004922352731227875,-0.033230870962142944,-0.006842374801635742
2025-09-20T01:56:23Z,-0.0020905935528852688,0.02017980463864771,-0.010711810202699738,-0.10422256588935852,-0.29503723978996277,-0.949784517288208,0.010083983732875263,-0.001099267865133142,-0.005366151107241687,0.9999340492447494,0.06173604726791382,-0.06193818524479866,-0.2440727949142456,-0.007996678352355957,-0.03460901975631714,-0.003911733627319336
2025-09-20T01:56:23Z,-0.00346996990376933,0.021652842460539598,-0.016258897029573886,-0.1039995327591896,-0.2969990372657776,-0.9491973519325256,0.010811733524431478,-0.0018228353299372777,-0.008147653986056822,0.9999065744170347,0.07425422966480255,-0.07975086569786072,-0.3079298138618469,-0.0048824697732925415,-0.03163689374923706,-0.008142411708831787
2025-09-20T01:56:23Z,-0.005050343988912569,0.02351171474414069,-0.022963358876664827,-0.10364146530628204,-0.2994323968887329,-0.9484717845916748,0.011725785560428569,-0.002659799334508652,-0.011510281922836997,0.9998613051238183,0.09290811419487,-0.09336954355239868,-0.35611170530319214,-0.0054656267166137695,-0.026936233043670654,-0.008579611778259277
2025-09-20T01:56:23Z,-0.007137830227801905,0.025811952186655187,-0.030502854535359218,-0.10352461785078049,-0.3023516535758972,-0.9475579857826233,0.012849612209938145,-0.0037650160776496306,-0.015295524560816105,0.9997932170559526,0.10657893121242523,-0.12416160106658936,-0.3965110778808594,-0.00976010411977768,-0.02144297957420349,-0.00927436351776123
2025-09-20T01:56:23Z,-0.00938862189190856,0.02836232196230497,-0.03880172708914008,-0.10334121435880661,-0.30556225776672363,-0.9465475678443909,0.01408680292719569,-0.004968035864075902,-0.019464038793426584,0.999698925034798,0.11522677540779114,-0.11584868282079697,-0.43370580673217773,-0.0018879249691963196,-0.018748700618743896,-0.019876956939697266
2025-09-20T01:56:23Z,-0.011229170566470308,0.031032895500983558,-0.047759128638414104,-0.10257485508918762,-0.30892592668533325,-0.9455385804176331,0.015377112956372391,-0.005982749558447581,-0.023961134228539578,0.9995767055836855,0.12170140445232391,-0.08920944482088089,-0.46574488282203674,0.00201503187417984,-0.01807340979576111,-0.021510303020477295
2025-09-20T01:56:23Z,-0.01282544279393301,0.03378799431545271,-0.057381797590854176,-0.10138010233640671,-0.31240415573120117,-0.9445240497589111,0.016701960231026405,-0.006893728178530976,-0.028790565972020572,0.999422123478651,0.12781205773353577,-0.09455317258834839,-0.4926746189594269,-0.002920404076576233,-0.010279983282089233,-0.010752320289611816
2025-09-20T01:56:23Z,-0.014589429702719182,0.03655966948410709,-0.06725570244202746,-0.10026147216558456,-0.315891295671463,-0.9434830546379089,0.018022781498788717,-0.007903853756444515,-0.033748266608681736,0.9992365210109514,0.1283242553472519,-0.11196274310350418,-0.4928150773048401,-0.007093146443367004,0.0020776093006134033,-0.000742793083190918
2025-09-20T01:56:23Z,-0.01680478673840402,0.039137536549535196,-0.07691398007172709,-0.09961812943220139,-0.3191474974155426,-0.9424548149108887,0.01922937664497703,-0.009146770801531224,-0.038603085412722386,0.9990276702472203,0.11899005621671677,-0.12977178394794464,-0.47544625401496887,-0.00905182957649231,0.01078614592552185,3.6776065826416016e-05
2025-09-20T01:56:23Z,-0.019084472424721624,0.04153331862249384,-0.08621766321436726,-0.09912467747926712,-0.32217466831207275,-0.9414764046669006,0.020333799094278137,-0.010426015532251533,-0.0432821881114387,0.9988014780044623,0.10920288413763046,-0.1456412822008133,-0.4523388743400574,-0.005886584520339966,0.015317261219024658,-0.0011298656463623047
2025-09-20T01:56:23Z,-0.021668359252002164,0.04373733421731881,-0.09489112194032122,-0.09908618777990341,-0.3249451518058777,-0.9405277967453003,0.021327327929651606,-0.011856227560922441,-0.04765028095161421,0.9985659233830046,0.10135603696107864,-0.15410587191581726,-0.4141804873943329,-0.0049125999212265015,0.021365731954574585,-0.00290834903717041
2025-09-20T01:56:23Z,-0.024207851651451735,0.045567214794094875,-0.10150644882375139,-0.0995832234621048,-0.32718297839164734,-0.9396991729736328,0.022136759668782955,-0.013240568354022366,-0.05098994273647084,0.9983659843122921,0.10107031464576721,-0.13974608480930328,-0.36024418473243713,-0.003383256494998932,0.02348119020462036,-0.010028481483459473
2025-09-20T01:56:23Z,-0.026735367045431568,0.04741378254859328,-0.10811764162391341,-0.10006297379732132,-0.32942259311676025,-0.9388653635978699,0.022945864615595023,-0.014624717064140057,-0.05432889464687809,0.9981521942173643,0.10078459978103638,-0.1253862977027893,-0.3063078820705414,-0.0018711686134338379,0.025598466396331787,-0.017153680324554443
2025-09-20T01:56:23Z,-0.02925084030394566,0.04927705279793673,-0.11472476050397509,-0.10052547603845596,-0.33166399598121643,-0.9380264282226562,0.023754679794811787,-0.01600866972464473,-0.05766710872361715,0.9979247369539727,0.10049887746572495,-0.11102651059627533,-0.25237154960632324,-0.00037632882595062256,0.027717530727386475,-0.024284064769744873
2025-09-20T01:56:23Z,-0.030995310781456877,0.05118948986541276,-0.11921339208930626,-0.10086238384246826,-0.3337867259979248,-0.937237024307251,0.024620557134818255,-0.016988813726747088,-0.05994064406931548,0.9977535399259048,0.11431016027927399,-0.07940227538347244,-0.1939043253660202,0.002894878387451172,0.027301132678985596,-0.029974639415740967
2025-09-20T01:56:23Z,-0.032310313031094655,0.053226602203705814,-0.12240670401228192,-0.10116153210401535,-0.33592814207077026,-0.9364393353462219,0.025569134019944158,-0.017745902259288588,-0.061564587595105996,0.9976175758783575,0.126444011926651,-0.06031215563416481,-0.13003665208816528,0.0015441849827766418,0.029200971126556396,-0.029529809951782227
2025-09-20T01:56:23Z,-0.03314805151719819,0.05550111295664431,-0.12417259952286226,-0.10141638666391373,-0.3381880223751068,-0.9355979561805725,0.02666181758232504,-0.018256334122384806,-0.06247299330275016,0.9975232835373038,0.14551673829555511,-0.0279037244617939,-0.05793829262256622,0.0036115944385528564,0.029273629188537598,-0.03123164176940918
2025-09-20T01:56:23Z,-0.03319419694244796,0.05810551148881115,-0.12456913909163916,-0.10131698846817017,-0.3406588137149811,-0.9347119331359863,0.027955759006420566,-0.018365031877653617,-0.06269064115353574,0.9974722791226324,0.17177504301071167,0.02074020355939865,0.002705644816160202,0.008921533823013306,0.018944621086120605,-0.03011268377304077
2025-09-20T01:56:23Z,-0.03254425006023733,0.06137136329783781,-0.12401820933074593,-0.10083043575286865,-0.3436802625656128,-0.9336579442024231,0.029609992874930022,-0.018133512647856512,-0.06243026581630007,0.9974451103278893,0.20855754613876343,0.03379794582724571,0.03419548645615578,0.0018160417675971985,0.007816225290298462,-0.02077549695968628
2025-09-20T01:56:23Z,-0.0318449590523508,0.06532372649437951,-0.12289133079213663,-0.10045582056045532,-0.34729936718940735,-0.9323582053184509,0.03161310978702859,-0.017888341646859887,-0.0618854433136919,0.9974220000405093,0.2420148402452469,0.03592005372047424,0.0685320794582367,-0.00272485613822937,0.007531076669692993,-0.013050436973571777
2025-09-20T01:56:24Z,-0.03132476892567937,0.06988161680042804,-0.12100542071683616,-0.10045929253101349,-0.3514242172241211,-0.9308109283447266,0.0339190836235444,-0.017735582275748965,-0.06096761290480876,0.9974055031947767,0.27793022990226746,0.024284187704324722,0.09899598360061646,-0.003953434526920319,0.00495484471321106,-0.008448660373687744
2025-09-20T01:56:24Z,-0.030829914913653046,0.07523321904256838,-0.1186408978786061,-0.10061494261026382,-0.35624605417251587,-0.928959310054779,0.03662392949159877,-0.017605686245636003,-0.05981537206044542,0.9973818801274839,0.31209686398506165,0.024817438796162605,0.11976635456085205,-0.0012454614043235779,-0.0014342665672302246,-0.014511942863464355
2025-09-20T01:56:24Z,-0.030377878315945513,0.08125444507522388,-0.11592440612249584,-0.10090398788452148,-0.36165326833724976,-0.9268361926078796,0.039664034517216465,-0.017502945511804077,-0.058491136466487896,0.9973459630179738,0.3357810378074646,0.03976977989077568,0.13248591125011444,0.0032350867986679077,-0.006698876619338989,-0.022280395030975342
2025-09-20T01:56:24Z,-0.02950529676135189,0.08769337485838934,-0.11272955328159752,-0.10093638300895691,-0.3673976957798004,-0.9245705604553223,0.042928011028051834,-0.017183572281318543,-0.05692027057638699,0.9973072744709711,0.35313722491264343,0.06936337053775787,0.1666426658630371,0.005376063287258148,-0.001444995403289795,-0.02525913715362549
2025-09-20T01:56:24Z,-0.02826918481985662,0.09458131401517342,-0.10871061788287192,-0.10086556524038315,-0.3734782636165619,-0.9221388697624207,0.04643147406882314,-0.016665488258299714,-0.054929565816319796,0.9972707956915221,0.38178178668022156,0.09969121217727661,0.21622693538665771,0.006274744868278503,0.00070992112159729,-0.021036803722381592
2025-09-20T01:56:24Z,-0.02646061309479031,0.10210696528238952,-0.10354649623700396,-0.1005912572145462,-0.38003817200660706,-0.9194848537445068,0.05027471240254166,-0.015835624598316524,-0.05235240844242467,0.9972366003389762,0.42121246457099915,0.13176319003105164,0.2795826494693756,0.006819732487201691,0.0036242306232452393,-0.014634966850280762
2025-09-20T01:56:24Z,-0.024225687509983045,0.11040267539560682,-0.09688703325708577,-0.10034994781017303,-0.38716140389442444,-0.9165347814559937,0.054518887009777764,-0.014751457501504462,-0.04901476985393414,0.997199878482374,0.4533545672893524,0.1583513468503952,0.358387291431427,0.006394438445568085,0.008881539106369019,-0.012619554996490479
2025-09-20T01:56:24Z,-0.02149356156209963,0.11922627137372746,-0.08883128855250183,-0.1000543162226677,-0.3946184515953064,-0.9133813381195068,0.05903933162384564,-0.013362070824074708,-0.04495923988623813,0.9971531412773609,0.4748467206954956,0.1840917468070984,0.4234987795352936,0.005078233778476715,0.009399265050888062,-0.017192721366882324
2025-09-20T01:56:24Z,-0.01867688426843453,0.1280540093489342,-0.07960201676841465,-0.1000247523188591,-0.40193524956703186,-0.9101884961128235,0.06355899734975216,-0.01185760786280311,-0.0403042623190841,0.9970933244511087,0.46062546968460083,0.20797370374202728,0.4736997187137604,0.003321520984172821,0.015004992485046387,-0.024508953094482422
2025-09-20T01:56:24Z,-0.015645079452496904,0.136204771656303,-0.06912879910924594,-0.10016541928052902,-0.4084778428077698,-0.9072555899620056,0.06773733554056277,-0.010151225110309765,-0.035008356807549997,0.9970370577766237,0.4096156358718872,0.22531306743621826,0.5590771436691284,0.0024143606424331665,0.040811747312545776,-0.02200138568878174
2025-09-20T01:56:24Z,-0.01231341487690482,0.1429191714281809,-0.05657996714460027,-0.10063304752111435,-0.4134804904460907,-0.9049347639083862,0.07119515913741555,-0.00815806162113015,-0.028652888325863317,0.9970173806992321,0.32747477293014526,0.27004969120025635,0.6729119420051575,0.011991791427135468,0.06199964880943298,-0.017128050327301025
2025-09-20T01:56:24Z,-0.008501290202426619,0.14789185623708953,-0.041969284288562635,-0.10125084221363068,-0.4166584610939026,-0.9034069180488586,0.07377267912895358,-0.005788270699210729,-0.021239533615946056,0.9970320433108678,0.2323293387889862,0.31659573316574097,0.753970742225647,0.017362989485263824,0.05689007043838501,-0.013455629348754883
2025-09-20T01:56:24Z,-0.004071713884139798,0.15113089052774875,-0.02614143890923458,-0.10164551436901093,-0.41808655858039856,-0.9027025103569031,0.07546041305289937,-0.0030165973129604256,-0.013186702243341104,0.9970570295951378,0.1481379270553589,0.3456471562385559,0.7872459292411804,0.01561572402715683,0.02918696403503418,-0.010376214981079102
2025-09-20T01:56:24Z,0.0004759781956955441,0.15297155762327394,-0.01024640779173786,-0.10193545371294022,-0.41817453503608704,-0.9026290774345398,0.07641144579683133,-0.00015417848407960882,-0.005090018943536278,0.9970632506137108,0.08847325295209885,0.33669257164001465,0.7804255485534668,0.0030922889709472656,0.0014743804931640625,-0.006535053253173828
2025-09-20T01:56:24Z,0.00462290870167469,0.15378382178030525,0.005415849630660193,-0.10249809920787811,-0.4172897934913635,-0.9029747247695923,0.0768094492292801,0.0025126261930021247,0.0028774698946493673,0.9970383125791565,0.047604843974113464,0.30907589197158813,0.7634698152542114,-0.008329272270202637,-0.010570555925369263,0.0009542703628540039
2025-09-20T01:56:24Z,0.007985392201552102,0.15412604759623547,0.020869811245443792,-0.10368361324071884,-0.4159373939037323,-0.9034631848335266,0.07694043930510955,0.0047839486794953815,0.010711033364032094,0.9969665153287665,0.026865122839808464,0.25327759981155396,0.7634598612785339,-0.017485886812210083,-0.015059083700180054,0.010901212692260742
2025-09-20T01:56:24Z,0.010408638844980393,0.15446706203307561,0.036165595071674946,-0.10564658045768738,-0.41453778743743896,-0.9038789868354797,0.07704929302699114,0.006583049289772447,0.018429147576050242,0.9968351592031219,0.023761244490742683,0.20723459124565125,0.7456350326538086,-0.017975889146327972,-0.02679714560508728,0.010609567165374756
2025-09-20T01:56:24Z,0.011970422675201983,0.15521604361800034,0.05078866171327095,-0.10818127542734146,-0.4135230779647827,-0.904043972492218,0.07735224623156942,0.007933816696238282,0.02577860422166405,0.99663882655484,0.03698839247226715,0.165967658162117,0.6927533149719238,-0.01743001490831375,-0.0423416793346405,0.007269859313964844
2025-09-20T01:56:24Z,0.012766220448835745,0.15649503439938414,0.06446448853613657,-0.11113257706165314,-0.4130450189113617,-0.9039044976234436,0.07792043131447488,0.00887926447243573,0.03262609544878355,0.9963859501093091,0.06459774821996689,0.13332735002040863,0.6598520874977112,-0.018987633287906647,-0.039800435304641724,0.0052013397216796875
2025-09-20T01:56:24Z,0.01321900140439875,0.15836973710685773,0.07757692011055968,-0.11422481387853622,-0.4131251275539398,-0.9034823179244995,0.07878542007255573,0.009651201146197622,0.03917880878464696,0.9960745930683443,0.08877742290496826,0.12843772768974304,0.6344555020332336,-0.011990465223789215,-0.033312082290649414,0.0001240372657775879
2025-09-20T01:56:24Z,0.013822903231454655,0.16065343960144007,0.08997968800648663,-0.11697429418563843,-0.4136190116405487,-0.9029043912887573,0.07984742653223771,0.010490838898998184,0.045382593496839985,0.9957181459018235,0.09490062296390533,0.13242103159427643,0.5913295745849609,-0.006741829216480255,-0.03578662872314453,-0.0016245841979980469
2025-09-20T01:56:24Z,0.015039658328058626,0.16279487917250565,0.10045397583851011,-0.11864475905895233,-0.4141957461833954,-0.9024218916893005,0.08082647026666248,0.01156741288986769,0.050648873836047874,0.9953732257961762,0.0776875838637352,0.14757558703422546,0.5254678726196289,-0.005242198705673218,-0.03389298915863037,-0.0047400593757629395
2025-09-20T01:56:24Z,0.016234014036076504,0.1649487332405705,0.11092935120237135,-0.12032253295183182,-0.41475415229797363,-0.9019432067871094,0.08180306835284991,0.012643626192901035,0.05591364262638939,0.994998483474109,0.06047454848885536,0.1627301424741745,0.45960620045661926,-0.003735266625881195,-0.03201773762702942,-0.007851719856262207
2025-09-20T01:56:24Z,0.018076249970000985,0.16632956999488716,0.11972829639612476,-0.12096161395311356,-0.41481533646583557,-0.9018295407295227,0.08237790555258534,0.0139603114311485,0.06036862041870816,0.9946730685249122,0.02813497930765152,0.17015865445137024,0.4033915102481842,-0.003699749708175659,-0.031676650047302246,-0.010797679424285889
2025-09-20T01:56:24Z,0.020359500991779137,0.16708080988394775,0.12734303854404055,-0.12088167667388916,-0.41445302963256836,-0.9020068049430847,0.08262442098586124,0.015432615463538588,0.06425101896059435,0.9943876065174203,-0.002812247723340988,0.18501274287700653,0.35564133524894714,-0.0014337226748466492,-0.03268551826477051,-0.009709417819976807
2025-09-20T01:56:24Z,0.022981320925326273,0.1673957974461656,0.13426999407003573,-0.12030668556690216,-0.41377925872802734,-0.9023929238319397,0.08263825440356136,0.017032307354436022,0.06780376960193925,0.9941243786765744,-0.016786010935902596,0.19175074994564056,0.32961490750312805,-0.004909321665763855,-0.03242892026901245,-0.006761074066162109
2025-09-20T01:56:24Z,0.02557201922318712,0.1675707461218417,0.1406834859800118,-0.11961857229471207,-0.4130396544933319,-0.9028231501579285,0.08257813620975414,0.018590687581697928,0.07109883342587692,0.9938712094013274,-0.012294912710785866,0.17140315473079681,0.29825201630592346,-0.00952909141778946,-0.041197896003723145,-2.0682811737060547e-05
2025-09-20T01:56:24Z,0.02768359002391196,0.1678699534834365,0.14636339325508566,-0.11916977912187576,-0.41250571608543396,-0.9031265377998352,0.08259559677341338,0.019884944737888696,0.07400932439479366,0.9936321621088372,-0.0033427774906158447,0.1361238807439804,0.25646689534187317,-0.005710184574127197,-0.04445013403892517,0.0010954737663269043
2025-09-20T01:56:24Z,0.029233145526034912,0.16819249085682975,0.15092240494703227,-0.1189378947019577,-0.4121454656124115,-0.9033216238021851,0.08265116582236326,0.020854788602314378,0.0763393697591433,0.9934314641661403,-0.01716911420226097,0.09759478271007538,0.19463084638118744,-0.005640700459480286,-0.04272729158401489,-0.009561300277709961
2025-09-20T01:56:24Z,0.030739827931266957,0.16789825398264557,0.15424249135568108,-0.11841845512390137,-0.4114038050174713,-0.9037278294563293,0.08241149936419716,0.021729152097076012,0.0780493277057216,0.9932997087991183,-0.048171885311603546,0.11931785196065903,0.1315394937992096,0.0053897425532341,-0.03491690754890442,-0.023593127727508545
2025-09-20T01:56:24Z,0.03261223882435446,0.16718406745927722,0.15640913231467543,-0.11726726591587067,-0.4104483723640442,-0.9043121933937073,0.08195905166178277,0.022720949378725663,0.07919898902222261,0.9932239698539025,-0.05981956794857979,0.10296529531478882,0.07938593626022339,0.0009280964732170105,-0.02978450059890747,-0.0019265413284301758
2025-09-20T01:56:24Z,0.033748220262476224,0.16658088168910032,0.15738838594133067,-0.11648021638393402,-0.4097636640071869,-0.9047243595123291,0.08160303643859321,0.02330199057631098,0.07972873890208514,0.9931974730190647,-0.03662076219916344,0.023606538772583008,0.019786987453699112,-0.011350534856319427,-0.03359183669090271,0.020770251750946045
2025-09-20T01:56:24Z,0.033347814401987225,0.16660781332901417,0.15733455208216127,-0.11682914942502975,-0.4097956418991089,-0.9046648144721985,0.0816330026004256,0.02310199102655253,0.07968580826259668,0.9932030414489591,-0.006962047889828682,-0.03857068344950676,-0.017071183770895004,-0.015035666525363922,-0.025923222303390503,0.01680290699005127
2025-09-20T01:56:24Z,0.03227245853189033,0.1670218165825192,0.1571024226199892,-0.11774846166372299,-0.4102019667625427,-0.9043614268302917,0.08188409371804106,0.022574390924416154,0.07952858947966834,0.9932071333189827,0.009648362174630165,-0.06945623457431793,0.0009190663695335388,-0.012602545320987701,-0.00547441840171814,0.005503416061401367
2025-09-20T01:56:24Z,0.030959271028959096,0.1675922107470832,0.15724306097603638,-0.11897892504930496,-0.41069495677948,-0.903976559638977,0.08221806668308101,0.021949963728204888,0.07954716166118111,0.9931920835648198,0.012367332354187965,-0.06473852694034576,0.01898874156177044,-0.009353682398796082,0.0016161203384399414,-0.011821627616882324
2025-09-20T01:56:24Z,0.029590462048314174,0.16836773101853506,0.15765597395398778,-0.12033048272132874,-0.4113328754901886,-0.9035075306892395,0.08265328721596615,0.021317143223941307,0.07969906382674198,0.993157548686142,0.009265633299946785,-0.04690578207373619,0.020714256912469864,-0.0036067962646484375,-0.004607141017913818,-0.024884939193725586
2025-09-20T01:56:24Z,0.029085459344856592,0.16892479795545504,0.15794307077455214,-0.1208663135766983,-0.4117923378944397,-0.9032266736030579,0.08294705703250034,0.02109978779776547,0.07982292709134867,0.9931277912108705,0.013954507187008858,-0.02633703500032425,0.01554378867149353,-0.00465770810842514,-0.006696432828903198,-0.018988728523254395
2025-09-20T01:56:24Z,0.02858023533630609,0.16948163827970913,0.15823047497375733,-0.12140215933322906,-0.412251353263855,-0.9029453992843628,0.0832407766959963,0.02088242170238306,0.07994677835379894,0.9930978471657205,0.01864338107407093,-0.005768287926912308,0.010373319499194622,-0.005708619952201843,-0.008786201477050781,-0.013092994689941406
2025-09-20T01:56:24Z,0.028122443070268482,0.1698729765882727,0.15831974205404695,-0.12184270471334457,-0.41259023547172546,-0.9027312397956848,0.08345250852840747,0.020674005420092127,0.07997347258458314,0.9930822588457171,0.02698363922536373,-0.019189678132534027,-0.01101501565426588,-0.008302859961986542,-0.017409831285476685,-0.00890582799911499
2025-09-20T01:56:24Z,0.027818362169488683,0.17037673023468256,0.15776381634140776,-0.12198182940483093,-0.41312363743782043,-0.9024684429168701,0.08372054944880546,0.020519291591884672,0.07968652941699522,0.9930860192733657,0.03299131244421005,-0.016576744616031647,-0.035096507519483566,-0.004907436668872833,-0.018848270177841187,-0.011078059673309326
2025-09-20T01:56:24Z,0.027683902578419906,0.17103669820435105,0.15703440465530744,-0.12192544341087341,-0.4138222932815552,-0.9021559357643127,0.08406112945142073,0.02044738797744118,0.0793210415503628,0.9930879872489978,0.03556113317608833,-0.010228151455521584,-0.03401416167616844,-0.0023789703845977783,-0.011198252439498901,-0.011697590351104736
2025-09-20T01:56:24Z,0.027748603232373898,0.1717257605401781,0.1563662059137068,-0.12170518189668655,-0.4145379066467285,-0.9018570780754089,0.0844076185492316,0.020477829659293272,0.078994411954856,0.9930840026426067,0.034797120839357376,0.00039569195359945297,-0.025742042809724808,0.0007553771138191223,-0.008206605911254883,-0.007279098033905029
2025-09-20T01:56:24Z,0.027667595433813696,0.17264296663677758,0.1559755631979981,-0.12168946862220764,-0.41541793942451477,-0.9014542102813721,0.08487032318556956,0.020456167913478825,0.07880025038472895,0.9930604371766765,0.045838430523872375,-0.0015963101759552956,-0.010901504196226597,-0.0017557889223098755,-0.008881032466888428,0.0011110901832580566
2025-09-20T01:56:24Z,0.02751608591424425,0.17381004468015893,0.15581827374520796,-0.12179940193891525,-0.41648808121681213,-0.9009453654289246,0.08545748476789058,0.02041881479911646,0.07871976916226377,0.9930172044289125,0.05572652816772461,-0.018569830805063248,0.002062622457742691,-0.003897659480571747,-0.011442512273788452,0.0035459399223327637
2025-09-20T01:56:24Z,0.02703033195453143,0.17506624927207795,0.1559134260053104,-0.12227537482976913,-0.4176011383533478,-0.9003654718399048,0.08609945874976274,0.02022968834602308,0.07875042761788026,0.9929631608322323,0.05765568092465401,-0.01722954958677292,0.01143302395939827,-0.003105252981185913,-0.00998467206954956,-0.0016655921936035156
2025-09-20T01:56:24Z,0.026536522227397673,0.1760720517528911,0.15655535994718905,-0.12289432436227798,-0.41841018199920654,-0.8999055027961731,0.08661191085260711,0.0200507470783397,0.07905104893246076,0.9928983686123035,0.043443068861961365,-0.013094976544380188,0.03363347798585892,-0.004063859581947327,-0.004085898399353027,-0.005516409873962402
2025-09-20T01:56:24Z,0.02604194187862724,0.17707753312928912,0.15719790310729884,-0.12351363897323608,-0.41921836137771606,-0.8994444608688354,0.08712432927538062,0.019871785499239177,0.07935163617750277,0.9928331526029066,0.029230454936623573,-0.008960403501987457,0.055833932012319565,-0.0050220787525177,0.001811981201171875,-0.00936824083328247
2025-09-20T01:56:24Z,0.025758861933097735,0.17763573565797508,0.15848904241487527,-0.12410221993923187,-0.41953152418136597,-0.899217426776886,0.0873999396327018,0.019809196388850356,0.0799818461658129,0.992759589995007,0.009939577430486679,0.004532628692686558,0.05929382145404816,-0.006882965564727783,-0.005478024482727051,-0.01721721887588501
2025-09-20T01:56:24Z,0.025814071829366594,0.1778037722578064,0.15941396672889083,-0.12428915500640869,-0.4195478856563568,-0.8991839289665222,0.08747197327762944,0.019883585478945087,0.08044384954379051,0.992714396160524,-0.009167473763227463,0.021556232124567032,0.02987087517976761,-0.0023989230394363403,-0.01896214485168457,-0.02260148525238037
2025-09-20T01:56:24Z,0.02634945306276321,0.17739411667899527,0.15962963729963772,-0.12385793030261993,-0.41914963722229004,-0.8994291424751282,0.08724488705807737,0.020142727419817524,0.08057307665124289,0.9927187104995048,-0.03833713009953499,0.03949291259050369,-0.013385642319917679,0.0010029152035713196,-0.019269317388534546,-0.03020721673965454
2025-09-20T01:56:25Z,0.02801217108388885,0.1760500266184533,0.1591196333570349,-0.12221711128950119,-0.4180191457271576,-0.900179386138916,0.08651591417008574,0.020893427004705,0.08038780849251978,0.9927819553755199,-0.08600089699029922,0.11629731953144073,-0.03314993903040886,0.013611353933811188,-0.005478471517562866,-0.037621259689331055
2025-09-20T01:56:25Z,0.03086850273376335,0.17379491756503496,0.15846535241206164,-0.1194503903388977,-0.41609153151512146,-0.9014429450035095,0.08528860290119566,0.02219561658851629,0.08017702298482797,0.9928769619840915,-0.1296079456806183,0.15739187598228455,-0.046021852642297745,0.007312439382076263,0.0009867846965789795,-0.023244857788085938
2025-09-20T01:56:25Z,0.03429227642511729,0.1709916286794419,0.15739490684059967,-0.11605189740657806,-0.41372960805892944,-0.9029727578163147,0.08377192278883025,0.02374199318278478,0.07977712411202492,0.9930025385274951,-0.15608544647693634,0.17120158672332764,-0.068267323076725,-0.00017038732767105103,-0.007459074258804321,-0.01332324743270874
2025-09-20T01:56:25Z,0.037985407727241564,0.16778232398411835,0.15588749265055646,-0.11228346079587936,-0.4110621213912964,-0.9046658873558044,0.08204976116291511,0.02539065586409632,0.07916355268728933,0.993154616030407,-0.16709910333156586,0.1635294407606125,-0.09776967018842697,-0.004682786762714386,-0.021038979291915894,-0.00907808542251587
2025-09-20T01:56:25Z,0.041662146764412177,0.16435842550686802,0.15358766737669763,-0.10831397771835327,-0.4083109498023987,-0.9063941240310669,0.08023445018309133,0.02699428750487813,0.07814767556866858,0.9933411045064516,-0.1698368638753891,0.15798436105251312,-0.13918767869472504,-0.005298800766468048,-0.03485304117202759,-0.01089566946029663
2025-09-20T01:56:25Z,0.04511290276964128,0.1606940192651571,0.15042172584345734,-0.10431330651044846,-0.4054611325263977,-0.9081409573554993,0.07832405970220206,0.028447468268156095,0.07668364575015901,0.9935670621365309,-0.17246167361736298,0.14513495564460754,-0.19812166690826416,-0.003684200346469879,-0.04353511333465576,-0.010551750659942627
2025-09-20T01:56:25Z,0.048454949546010234,0.15698589788907108,0.14602900374107117,-0.10008610039949417,-0.40273910760879517,-0.9098263382911682,0.07641873511472075,0.029804648278678188,0.07459818190646143,0.9938344191224836,-0.19606032967567444,0.12206839770078659,-0.24784797430038452,-0.0032637424301356077,-0.033370282500982285,-0.006635007448494434
2025-09-20T01:56:25Z,0.05126539381095062,0.15246463309369573,0.14046059909547196,-0.0960136130452156,-0.3994370102882385,-0.9117189645767212,0.0741525162248548,0.030834941219127856,0.07189292157449051,0.9941739912370153,-0.22622692584991455,0.10463237762451172,-0.28355735540390015,-0.0019444897770881653,-0.02726668119430542,-0.006110846996307373
2025-09-20T01:56:25Z,0.053831832097098346,0.14766279064082005,0.1345284434450761,-0.09205102175474167,-0.3959161639213562,-0.9136613607406616,0.07176690536399077,0.03173481984524739,0.06898683034710176,0.9945265956107019,-0.2487397938966751,0.0901012122631073,-0.3037859797477722,-0.0022689327597618103,-0.0239754319190979,-0.007599771022796631
2025-09-20T01:56:25Z,0.056260382570665596,0.14266587042557688,0.12846687520866623,-0.08816342800855637,-0.39221885800361633,-0.9156372547149658,0.06929651162046353,0.0325702162769208,0.06600121909936711,0.9948773178794479,-0.2522338330745697,0.08237580955028534,-0.3122190833091736,-0.0017250776290893555,-0.02624109387397766,-0.009280502796173096
2025-09-20T01:56:25Z,0.05834410346496818,0.13771361698743204,0.12220612366868144,-0.08452842384576797,-0.38857147097587585,-0.9175332188606262,0.06686787421658655,0.033244127086336096,0.06289750130622683,0.995222259986371,-0.24231426417827606,0.05515236407518387,-0.32923170924186707,-0.0034698322415351868,-0.0315743088722229,-0.005715608596801758
2025-09-20T01:56:25Z,0.059947882337473425,0.13297071506446453,0.11558124364372598,-0.08123297989368439,-0.385145902633667,-0.9192735552787781,0.06456852209514875,0.03368886064750751,0.059592704902633145,0.9955624605333977,-0.22983422875404358,0.02854222059249878,-0.3487038314342499,-0.001937679946422577,-0.03141769766807556,-0.0035212039947509766
2025-09-20T01:56:25Z,0.0610147800427678,0.1284104475044669,0.10862297677197122,-0.07833882421255112,-0.38191282749176025,-0.9208722114562988,0.06238429132509168,0.03387628211267884,0.05610193876466339,0.9958980616785698,-0.22236448526382446,0.00015085376799106598,-0.36699557304382324,-0.0017058700323104858,-0.02418556809425354,0.003001272678375244
2025-09-20T01:56:25Z,0.06139068880895168,0.12396542611466392,0.10136880120239332,-0.0759982243180275,-0.37880486249923706,-0.9223508834838867,0.06028247184205023,0.03372897993417873,0.05244022372760997,0.9962319964033457,-0.21887481212615967,-0.03488985449075699,-0.37940847873687744,-0.0028780698776245117,-0.01543453335762024,0.011407673358917236
2025-09-20T01:56:25Z,0.06103577886784546,0.11956581310717009,0.09381241557321567,-0.07424698770046234,-0.3757575750350952,-0.923738956451416,0.058225628122888486,0.03322533276546417,0.04860452937893233,0.9965657042955248,-0.2241870015859604,-0.0761241465806961,-0.3954545259475708,-0.0038967058062553406,-0.008628398180007935,0.01657235622406006
2025-09-20T01:56:25Z,0.05958661161922956,0.11486025932108267,0.08588520519945424,-0.07339762151241302,-0.3724552392959595,-0.9251431822776794,0.05604349514029828,0.03217536659186872,0.04454787854993282,0.9969148130926517,-0.2391681671142578,-0.09757531434297562,-0.4025076925754547,-0.00017876923084259033,-0.004699885845184326,0.008117318153381348
2025-09-20T01:56:25Z,0.058100739468765386,0.11016628691196,0.07795534960007379,-0.07257851213216782,-0.3691402077674866,-0.926535427570343,0.05386011489863143,0.03112468282481422,0.04049022732253243,0.9972415621944803,-0.25414931774139404,-0.11902648210525513,-0.4095608592033386,0.0035694316029548645,-0.000784069299697876,-0.0003497600555419922
2025-09-20T01:56:25Z,0.0563847871439753,0.10497254739242733,0.0698371201530603,-0.07190947979688644,-0.365363746881485,-0.9280831813812256,0.05142661345415203,0.029963486006529587,0.036327472881899886,0.9975659005439573,-0.2743788957595825,-0.12777836620807648,-0.4250640273094177,0.007055036723613739,-0.002067089080810547,-0.00811237096786499
2025-09-20T01:56:25Z,0.054571534953546615,0.0992489719875501,0.061413405030802476,-0.07123704254627228,-0.3611082434654236,-0.92979896068573,0.04872569495521381,0.028758325234448122,0.03200535032034234,0.9978849157836558,-0.2979685068130493,-0.12547479569911957,-0.4397362172603607,0.008546195924282074,-0.0020627081394195557,-0.01603764295578003
2025-09-20T01:56:25Z,0.052847244036754594,0.09296519852748808,0.052777336215667665,-0.07041304558515549,-0.35632941126823425,-0.9317034482955933,0.045737102362103,0.02760842414356275,0.027575132150084284,0.9981910825105861,-0.32005488872528076,-0.11973955482244492,-0.45158228278160095,0.007960066199302673,-0.0011378824710845947,-0.020318269729614258
2025-09-20T01:56:25Z,0.05115989314695143,0.08627321283323378,0.044007977692551235,-0.06951037049293518,-0.3511541187763214,-0.9337339401245117,0.04253645720966814,0.02649567535220079,0.023077258142956494,0.9984768391655328,-0.3312515616416931,-0.12101390957832336,-0.4479694068431854,0.0038837790489196777,0.002035677433013916,-0.017258763313293457
2025-09-20T01:56:25Z,0.049429414558157726,0.0795127974024679,0.035383112246041216,-0.06868526339530945,-0.34586337208747864,-0.9357675313949585,0.039290741824934215,0.025391716076668378,0.0186533114894019,0.9987309643395145,-0.3240399956703186,-0.13249142467975616,-0.43802523612976074,-0.00044921785593032837,0.001929163932800293,-0.012440621852874756
2025-09-20T01:56:25Z,0.04739482664144733,0.07306421325718385,0.02702304632859802,-0.06822218000888824,-0.34079912304878235,-0.9376575946807861,0.036190459381444294,0.024170565608144474,0.014363670361780812,0.9989492860184499,-0.30155879259109497,-0.1424061357975006,-0.4177497327327728,-0.0006303340196609497,0.0023723244667053223,-0.010961830615997314
2025-09-20T01:56:25Z,0.04517567704923673,0.06722220116817425,0.019056247809590726,-0.06804996728897095,-0.3362267315387726,-0.9393193125724792,0.03337959896414696,0.022892240905924136,0.010279129524844038,0.9991276483824979,-0.2596628963947296,-0.14736062288284302,-0.3945945203304291,0.0004671439528465271,0.00015994906425476074,-0.0084342360496521
2025-09-20T01:56:25Z,0.04269461916139351,0.06237462125462214,0.01146097299838633,-0.06824130564928055,-0.33251795172691345,-0.9406247735023499,0.031052377835039145,0.021513605884390045,0.006391959325567361,0.9992657494576567,-0.20359162986278534,-0.15601550042629242,-0.37463489174842834,0.000390760600566864,-0.0023480653762817383,-0.005933880805969238
2025-09-20T01:56:25Z,0.0399746054408139,0.058716433637762605,0.004199749731917319,-0.06876600533723831,-0.32986652851104736,-0.9415196776390076,0.029306124949585413,0.02003894500398931,0.0026852165204294953,0.9993658848999694,-0.1416018009185791,-0.16124291718006134,-0.35719913244247437,0.00031557679176330566,-0.004619628190994263,-0.005123615264892578
2025-09-20T01:56:25Z,0.03708684806788605,0.05630246421170997,-0.0028248491328542787,-0.06952891498804092,-0.32834023237228394,-0.9419970512390137,0.028168829575719565,0.018495248956371984,-0.0008897008584832116,0.9994315363560001,-0.07916419208049774,-0.16531378030776978,-0.35069963335990906,0.0003648996353149414,-0.008863896131515503,-0.006624102592468262
2025-09-20T01:56:25Z,0.03411188782554642,0.055119319184879015,-0.009887394040678435,-0.07037555426359177,-0.32795873284339905,-0.9420670866966248,0.027636112659096507,0.016912225137680655,-0.004471113232883678,0.9994648492034169,-0.022600527852773666,-0.17452284693717957,-0.3604581356048584,-0.0009557902812957764,-0.013840138912200928,-0.009685754776000977
2025-09-20T01:56:25Z,0.031065434908915147,0.05495684418709987,-0.01729473221563047,-0.07120063155889511,-0.3285564184188843,-0.9417967796325684,0.027604885126488767,0.015288096032736162,-0.008216224253828466,0.999468119821901,0.022017043083906174,-0.17648407816886902,-0.3747760057449341,-0.00015474110841751099,-0.012215524911880493,-0.015516161918640137
2025-09-20T01:56:25Z,0.028094665697904787,0.055510153200876974,-0.024998419887857958,-0.07187248766422272,-0.32984021306037903,-0.9412968754768372,0.02792211280675969,0.01369353635560078,-0.012103047436199402,0.9994429337530913,0.048158496618270874,-0.1677660048007965,-0.3846170902252197,0.0014377087354660034,-0.004843473434448242,-0.022344648838043213
2025-09-20T01:56:25Z,0.025622097497972098,0.056608145339658376,-0.032647924662876186,-0.07208714634180069,-0.3316134512424469,-0.9406571984291077,0.028503233059210837,0.012341948017881892,-0.01595286409946856,0.9993900622728183,0.05760442465543747,-0.1497219353914261,-0.37428978085517883,0.0018195807933807373,0.0009692013263702393,-0.022274434566497803
2025-09-20T01:56:25Z,0.02315786025924703,0.05772500753579854,-0.04029516851789586,-0.072286456823349,-0.33338743448257446,-0.9400146007537842,0.029083878844578557,0.010990150631573239,-0.019802407879399787,0.999320237841199,0.06705035269260406,-0.13167786598205566,-0.36396247148513794,0.002186097204685211,0.006782591342926025,-0.022207200527191162
2025-09-20T01:56:25Z,0.02104547517088876,0.058923151605954065,-0.047555942902243624,-0.07225556671619415,-0.3351854383945465,-0.9393773674964905,0.029697431024280286,0.00981467392017654,-0.023454220626606452,0.9992354604360146,0.06913923472166061,-0.12001648545265198,-0.3424014747142792,0.001600891351699829,0.01165357232093811,-0.01861417293548584
2025-09-20T01:56:25Z,0.01916523384816165,0.06002117564696642,-0.05431011112852614,-0.07214070111513138,-0.33682873845100403,-0.9387982487678528,0.03025370907387117,0.008759945375638702,-0.026850821718957318,0.9991430690980176,0.06159722059965134,-0.11173857748508453,-0.3203241527080536,0.00014421343803405762,0.014134913682937622,-0.01649528741836548
2025-09-20T01:56:25Z,0.017396195689338468,0.06076759846920472,-0.060449829123026426,-0.07208574563264847,-0.3380752205848694,-0.9383543133735657,0.03062683901631354,0.007771971541332261,-0.029941108958860898,0.9990519884518502,0.04514213651418686,-0.10349839925765991,-0.29023978114128113,0.0002817586064338684,0.017285823822021484,-0.013678371906280518
2025-09-20T01:56:25Z,0.015822381894689267,0.06109527019348648,-0.06621113169763847,-0.0719471126794815,-0.33888593316078186,-0.9380724430084229,0.030786927897496163,0.006892162049544457,-0.032841548515357276,0.9989624223940632,0.021421942859888077,-0.09995685517787933,-0.2807329297065735,0.0006238073110580444,0.012482315301895142,-0.011218130588531494
2025-09-20T01:56:25Z,0.014202479202442667,0.060831605793923056,-0.07192926600534821,-0.07185740768909454,-0.33912959694862366,-0.9379912614822388,0.0306459026468584,0.005999844699250371,-0.03572353144509675,0.9988736012888896,-0.00890936516225338,-0.09780781716108322,-0.2880985736846924,-0.00045552849769592285,0.005611330270767212,-0.01012486219406128
2025-09-20T01:56:25Z,0.012537048678614186,0.05999143111032579,-0.0778797466226206,-0.0717395767569542,-0.33884328603744507,-0.9381037354469299,0.03021181903715752,0.005093377822955936,-0.03872390310302169,0.9987800448441365,-0.03532622754573822,-0.10732659697532654,-0.3076063096523285,-0.0031394436955451965,-0.0007762610912322998,-0.007672548294067383
2025-09-20T01:56:25Z,0.010656465396093658,0.0586504710257332,-0.08422930297158401,-0.07170666754245758,-0.3381098508834839,-0.9383708834648132,0.02951885498815328,0.004086731836537676,-0.04192741953133193,0.9986759987405963,-0.05656103789806366,-0.11900879442691803,-0.3242475688457489,-0.005603179335594177,-0.003677964210510254,-0.006107747554779053
2025-09-20T01:56:25Z,0.008587209622405929,0.057122183091798284,-0.09083376961601855,-0.0717761367559433,-0.33720916509628296,-0.9386895895004272,0.028722358119897325,0.002990893295048667,-0.04525985885891406,0.9985576101484164,-0.06661015003919601,-0.12975706160068512,-0.3314756751060486,-0.007103942334651947,-0.00486910343170166,-0.0077416300773620605
2025-09-20T01:56:25Z,0.006357293075060984,0.055509142430569765,-0.09753011728178838,-0.07196839153766632,-0.3362230956554413,-0.9390285611152649,0.02787276674496982,0.0018209032297167988,-0.04863861328656782,0.9984256918595875,-0.07392207533121109,-0.1286700963973999,-0.33406463265419006,-0.00565791130065918,-0.006237387657165527,-0.012431979179382324
2025-09-20T01:56:25Z,0.004242573182241179,0.053952761041331385,-0.10416644741614431,-0.07206793874502182,-0.3352721631526947,-0.9393608570098877,0.027046868208716584,0.0007134292505016374,-0.05198348673424082,0.9982812488334409,-0.07855407893657684,-0.11821569502353668,-0.3263334333896637,-0.0025636181235313416,-0.004668682813644409,-0.014255523681640625
2025-09-20T01:56:25Z,0.00234532322027193,0.05242362021423131,-0.11060662267931755,-0.0720173791050911,-0.3343190848827362,-0.9397043585777283,0.02623352055023907,-0.0002782281182613282,-0.05522541705714898,0.9981291074878738,-0.07774840295314789,-0.09849171340465546,-0.3176790773868561,-0.001775890588760376,-0.006721317768096924,-0.01613903045654297
2025-09-20T01:56:25Z,0.0007957229687311624,0.05100097958008908,-0.11687530501386999,-0.07168740034103394,-0.33344119787216187,-0.9400414228439331,0.025477431156039492,-0.0010921263764930031,-0.05837528247519598,0.9979688689674265,-0.07132979482412338,-0.08528445661067963,-0.3063056468963623,-0.0021643340587615967,-0.007015585899353027,-0.014193594455718994
2025-09-20T01:56:25Z,-0.0005804831282421943,0.04967226436729569,-0.12285436930248225,-0.07127543538808823,-0.33261942863464355,-0.9403638243675232,0.02476892934634942,-0.001814102620734711,-0.06137682308751832,0.9978056003446268,-0.06691732257604599,-0.07479039579629898,-0.28895121812820435,-0.0020119473338127136,-0.0027243196964263916,-0.013863205909729004
2025-09-20T01:56:25Z,-0.0015798938684717457,0.04837070919926113,-0.12809066980323328,-0.07071985304355621,-0.3317611813545227,-0.9407088756561279,0.024082867073020618,-0.002335845984389773,-0.06400188922285742,0.9976563792116605,-0.06794692575931549,-0.06491241604089737,-0.2676764726638794,-0.0007037892937660217,-5.754828453063965e-05,-0.01485288143157959
2025-09-20T01:56:25Z,-0.0025860472271535917,0.0470744231719889,-0.13332792236304972,-0.07016921043395996,-0.33089959621429443,-0.9410535097122192,0.023396632358172922,-0.0028575696766045267,-0.06662645342942956,0.9974995280047989,-0.06897652894258499,-0.05503443628549576,-0.24640172719955444,0.000609271228313446,0.0026058554649353027,-0.015843093395233154
2025-09-20T01:56:25Z,-0.0034062935696382696,0.045720360780304045,-0.13817220056703897,-0.0695551186800003,-0.32994920015335083,-0.9414327144622803,0.022686091172262376,-0.0032765648290513285,-0.06905186532109978,0.9973496022642602,-0.07350550591945648,-0.04803852736949921,-0.22916346788406372,0.0009954199194908142,0.0052852630615234375,-0.014815270900726318
2025-09-20T01:56:25Z,-0.00418496775972291,0.04428915814339004,-0.14265219294798515,-0.06900563091039658,-0.32889524102211,-0.9418419003486633,0.02193733602286766,-0.003664665726851026,-0.07129422579082213,0.997207259447963,-0.07583048939704895,-0.045193471014499664,-0.21345196664333344,0.00013443827629089355,0.007310241460800171,-0.012330353260040283
2025-09-20T01:56:25Z,-0.004950047867777397,0.04277073063577911,-0.1467489600808804,-0.06855287402868271,-0.3277282118797302,-0.9422816634178162,0.021144734963145877,-0.004035406020876006,-0.0733444585588185,0.9970742652338382,-0.07466106116771698,-0.04883066564798355,-0.19082684814929962,-0.0021376311779022217,0.009555011987686157,-0.009793758392333984
2025-09-20T01:56:26Z,-0.005815730195108641,0.041230548483813724,-0.15030669107993297,-0.06834954023361206,-0.3265013098716736,-0.9427222609519958,0.02033725887613922,-0.004446770075538871,-0.07512612770551644,0.9969566397692184,-0.07429210841655731,-0.05231785774230957,-0.16257017850875854,-0.002499692142009735,0.011727482080459595,-0.010307490825653076
2025-09-20T01:56:26Z,-0.00671518503849238,0.03972165929648953,-0.15328859886981835,-0.06834357976913452,-0.3252639174461365,-0.9431503415107727,0.01954407491084116,-0.004867690802875757,-0.07662024270555778,0.9968567828568261,-0.07225681096315384,-0.051480356603860855,-0.13252760469913483,-0.0014163851737976074,0.013428211212158203,-0.012471318244934082
2025-09-20T01:56:26Z,-0.007512898421066447,0.0381715453765882,-0.15569035568618111,-0.06840890645980835,-0.32394883036613464,-0.9435980916023254,0.018734613889763503,-0.005228518049775627,-0.07782335116026962,0.9967772736103172,-0.07097802311182022,-0.038415148854255676,-0.10582838207483292,0.0009076520800590515,0.012760132551193237,-0.01836872100830078
2025-09-20T01:56:26Z,-0.008063433500708645,0.03664077594644993,-0.15759924460808253,-0.06838309019804001,-0.322619765996933,-0.9440551996231079,0.017945054772291115,-0.005460575073418382,-0.07877788454362357,0.9967156185368464,-0.0697663202881813,-0.026400528848171234,-0.08148990571498871,0.0017814785242080688,0.011240959167480469,-0.019249260425567627
2025-09-20T01:56:26Z,-0.008388518262055526,0.03515818565595878,-0.1590048535731981,-0.0682893916964531,-0.3213040828704834,-0.9445105791091919,0.017189460722183213,-0.005576377717537914,-0.07947923208882891,0.9966726431717168,-0.06323237717151642,-0.009809663519263268,-0.05495408922433853,0.0020124465227127075,0.011620789766311646,-0.018525898456573486
2025-09-20T01:56:26Z,-0.00853406304104276,0.03381071046222453,-0.1599563764132677,-0.06815658509731293,-0.32008764147758484,-0.9449331164360046,0.01650950506302392,-0.005603313534577158,-0.07995271365882446,0.9966461318601353,-0.05365578830242157,-0.005148027557879686,-0.03291432559490204,-0.0006774142384529114,0.010501265525817871,-0.015181779861450195
2025-09-20T01:56:26Z,-0.008599414744474182,0.03261542335790468,-0.1604077045518402,-0.06809166073799133,-0.31898435950279236,-0.9453107714653015,0.015909982024127745,-0.0055917722329184,-0.08017639165860764,0.9966379863681425,-0.04286634549498558,0.002963405568152666,-0.011305775493383408,0.0009538903832435608,0.009716421365737915,-0.015876173973083496
2025-09-20T01:56:26Z,-0.008417969512363717,0.031672999696756,-0.1604445213390385,-0.06791206449270248,-0.31809505820274353,-0.9456233382225037,0.015447520160861844,-0.005463923324797992,-0.08019192344254364,0.9966447360351047,-0.03163276985287666,0.012877466157078743,0.006945181638002396,0.002321965992450714,0.008549362421035767,-0.016801536083221436
2025-09-20T01:56:26Z,-0.008051749295137115,0.030986499750838576,-0.16014552958352987,-0.0676535964012146,-0.31742745637893677,-0.9458661675453186,0.0151208871465229,-0.005251686027498485,-0.08003915683848432,0.9966630916214787,-0.01858251355588436,0.01741679012775421,0.022472668439149857,0.0003620162606239319,0.006723135709762573,-0.014917969703674316
2025-09-20T01:56:26Z,-0.007743979081081149,0.030634949747393853,-0.1595590310497936,-0.06753222644329071,-0.3170595169067383,-0.9459982514381409,0.014959503377349715,-0.005079880048954857,-0.0797440909408396,0.9966900828653888,-0.002756420522928238,0.013494488783180714,0.030970141291618347,-0.0008946061134338379,0.0028190016746520996,-0.01264733076095581
2025-09-20T01:56:26Z,-0.007550005393950425,0.030720275663339774,-0.15885722880223255,-0.06755056977272034,-0.3170979619026184,-0.9459840655326843,0.015011508644437462,-0.004981344157675003,-0.07939300443375558,0.9967178141203021,0.007939278148114681,0.01202294509857893,0.03279472514986992,6.196647882461548e-05,0.0018310248851776123,-0.013850510120391846
2025-09-20T01:56:26Z,-0.007356086333452188,0.030805684748024604,-0.15815545384567894,-0.06756893545389175,-0.31713634729385376,-0.9459698796272278,0.0150634855253085,-0.004882803114364625,-0.07904191243982658,0.9967454197133031,0.0186349768191576,0.01055140234529972,0.03461930900812149,0.0010185688734054565,0.0008429884910583496,-0.015053629875183105
2025-09-20T01:56:26Z,-0.007126357498552622,0.03109829120082014,-0.15740752227217078,-0.06756623089313507,-0.31736788153648376,-0.9458923935890198,0.015220179214173731,-0.004774168739468644,-0.07866776856069375,0.9967731676416067,0.025804582983255386,0.016218455508351326,0.03862904757261276,0.0026565194129943848,0.0029339492321014404,-0.016370534896850586
2025-09-20T01:56:26Z,-0.006793363235253029,0.03152952888711349,-0.15651357858517015,-0.06750757247209549,-0.31772151589393616,-0.9457778930664062,0.015450266892660247,-0.0046182420262847294,-0.07822015874706163,0.9968056259367025,0.029464116320014,0.025261811912059784,0.04621005058288574,0.003625616431236267,0.004161328077316284,-0.015713930130004883
2025-09-20T01:56:26Z,-0.006261452220661651,0.03204388911086732,-0.15549488848027837,-0.06729655712842941,-0.31814584136009216,-0.9456502795219421,0.015729655109170165,-0.0043652147284016524,-0.07770880249933666,0.9968424012150059,0.03178415074944496,0.03141820803284645,0.05226680636405945,0.0035164132714271545,0.003948897123336792,-0.014017760753631592
2025-09-20T01:56:26Z,-0.0056863067096879485,0.03259697896834209,-0.1543936853016405,-0.06706841289997101,-0.3186013102531433,-0.945513129234314,0.016029930191152165,-0.004091187915888422,-0.07715584119500714,0.9968817106336576,0.03277365490794182,0.02954433485865593,0.05650096386671066,0.002232849597930908,0.00400051474571228,-0.012834608554840088
2025-09-20T01:56:26Z,-0.005107721753912254,0.03309281862127481,-0.15311402244256367,-0.06688852608203888,-0.31899112462997437,-0.9453943967819214,0.016301840782242307,-0.0038114744864315413,-0.0765136698804644,0.9969278746778977,0.0320279635488987,0.026494355872273445,0.0722823217511177,0.002340085804462433,0.008147507905960083,-0.012411892414093018
2025-09-20T01:56:26Z,-0.004601406130514063,0.03360557559119759,-0.15136968716185775,-0.06691054999828339,-0.31936734914779663,-0.9452658295631409,0.01657991768009309,-0.003564231090998031,-0.07564028886514285,0.9969908272104976,0.035538192838430405,0.025607891380786896,0.10046616941690445,0.0031651630997657776,0.011073946952819824,-0.012359917163848877
2025-09-20T01:56:26Z,-0.004194449801385567,0.034289803874000574,-0.14899374469188642,-0.06720766425132751,-0.3198648989200592,-0.9450764656066895,0.01694040640596764,-0.0033670950363647997,-0.07445274678137452,0.9970748312077014,0.04554230347275734,0.01965123601257801,0.13478203117847443,0.0031486377120018005,0.012001663446426392,-0.011270403861999512
2025-09-20T01:56:26Z,-0.003857823482629329,0.03518756493463515,-0.14579652080250968,-0.06780655682086945,-0.3205099105834961,-0.9448151588439941,0.017405651985909525,-0.0032048427303148093,-0.07285616098324076,0.9971852534703142,0.05845700204372406,0.015972619876265526,0.18548060953617096,0.002604871988296509,0.015220433473587036,-0.011295497417449951
2025-09-20T01:56:26Z,-0.003626532297769982,0.03633795407202297,-0.14146753861983444,-0.06882881373167038,-0.3213166296482086,-0.9444671273231506,0.017994388525519454,-0.003092449284869476,-0.07069589083588558,0.9973306561227644,0.07457693666219711,0.01672871969640255,0.24660909175872803,0.0028554797172546387,0.017817944288253784,-0.012330710887908936
2025-09-20T01:56:26Z,-0.0033183247886501353,0.037732958838247656,-0.13601106964190368,-0.07010010629892349,-0.322273313999176,-0.9440475702285767,0.018709004644582656,-0.002936991150035403,-0.06797217946863604,0.9975073213209259,0.08947353065013885,0.023327093571424484,0.2933002710342407,0.005453675985336304,0.01333513855934143,-0.014520645141601562
2025-09-20T01:56:26Z,-0.0029612341961667175,0.03940223738939522,-0.12979248994237064,-0.07154128700494766,-0.3234275281429291,-0.9435446262359619,0.019562354865614903,-0.002754760757244612,-0.0648671568639475,0.9976982803261442,0.10508044809103012,0.029839972034096718,0.3242391049861908,0.005741819739341736,0.00827983021736145,-0.014222979545593262
2025-09-20T01:56:26Z,-0.002547580641124188,0.041382905437686766,-0.12295909858524583,-0.07310211658477783,-0.3248201012611389,-0.9429464340209961,0.020572625827850063,-0.002542319825738875,-0.06145393397373452,0.9978945809555326,0.12373626232147217,0.02538684569299221,0.3559819459915161,0.0024065598845481873,0.006642788648605347,-0.009938418865203857
2025-09-20T01:56:26Z,-0.0022853916132947335,0.04371453783017876,-0.1154882032836996,-0.07498431950807571,-0.3264826238155365,-0.9422242045402527,0.02175315718395555,-0.0024018446705678623,-0.05772313076942792,0.998092644905847,0.14439554512500763,0.0205719992518425,0.3883594870567322,0.00017791986465454102,0.0057160258293151855,-0.009461939334869385
2025-09-20T01:56:26Z,-0.0020651141706339643,0.04682309571496437,-0.10695150422329384,-0.07720489054918289,-0.32877910137176514,-0.9412458539009094,0.023320759714828426,-0.0022820372160627027,-0.053459733703423835,0.9982949693521955,0.1669754832983017,0.026881620287895203,0.42204901576042175,0.0011763200163841248,0.0048607587814331055,-0.011407554149627686
2025-09-20T01:56:26Z,-0.001871390640385565,0.04993342446798551,-0.09841417261981668,-0.07944554090499878,-0.3310534954071045,-0.9402616620063782,0.024887882839634484,-0.002162187092685642,-0.049195215169652286,0.9984766207666133,0.18955542147159576,0.033191241323947906,0.45573854446411133,0.002194814383983612,0.003983408212661743,-0.013359010219573975
2025-09-20T01:56:26Z,-0.0014096033089414112,0.05352071135729019,-0.08914552614302265,-0.08163585513830185,-0.3336936831474304,-0.9391400814056396,0.026699190470158753,-0.0018960955730112207,-0.0445608871554632,0.9986478858466205,0.2029789686203003,0.050637029111385345,0.47843655943870544,0.004779115319252014,0.0011142492294311523,-0.016833782196044922
2025-09-20T01:56:26Z,-0.0006184041992526027,0.05734252388934306,-0.0794382864554621,-0.08363505452871323,-0.3364892899990082,-0.9379659295082092,0.028632452727742026,-0.0014471741728894405,-0.03970123991599359,0.9988001220302362,0.20799216628074646,0.07108602672815323,0.48679739236831665,0.007604733109474182,-0.002397686243057251,-0.01748603582382202
2025-09-20T01:56:26Z,0.00042225765910854015,0.06120092466093983,-0.06970994631973307,-0.08540058881044388,-0.3392862379550934,-0.9367985725402832,0.030584459002628957,-0.0008552942758853854,-0.034825147489889526,0.9989248966569342,0.2007535994052887,0.08430471271276474,0.48197707533836365,0.0063290223479270935,-0.0036469697952270508,-0.0169297456741333
2025-09-20T01:56:26Z,0.0016864498869859264,0.06486033518704148,-0.060104220260513624,-0.08691687136888504,-0.3418766260147095,-0.9357167482376099,0.03243515671362742,-0.00013187633638795057,-0.0300044498475165,0.9990232997047926,0.18884946405887604,0.0883839800953865,0.47713154554367065,0.002586938440799713,-0.001541733741760254,-0.014379441738128662
2025-09-20T01:56:26Z,0.0028954700052229083,0.06833233478869065,-0.0506067803578305,-0.08844895660877228,-0.344271719455719,-0.9346944689750671,0.034185159616013,0.000582167798619475,-0.02523646167782648,0.9990965996313232,0.17930415272712708,0.08321860432624817,0.4703029990196228,-0.000889509916305542,-0.0009863674640655518,-0.009363710880279541
2025-09-20T01:56:26Z,0.004000831427656819,0.07174942930098623,-0.04132615380145357,-0.09001169353723526,-0.34660694003105164,-0.9336817264556885,0.035900600460275996,0.0012576316985978915,-0.020576539441816033,0.9991426168790302,0.17580443620681763,0.06803178787231445,0.4583522081375122,-0.0024341270327568054,-0.004395484924316406,-0.0051964521408081055
2025-09-20T01:56:26Z,0.004761331781967434,0.07518748078797811,-0.032379756363018125,-0.09179751574993134,-0.34896624088287354,-0.9326283931732178,0.03761837040700892,0.0017702034087805811,-0.016088222421105396,0.9991610181300141,0.17848782241344452,0.05299091339111328,0.4387982487678528,-0.0037576332688331604,-0.010504484176635742,-0.0036490559577941895
2025-09-20T01:56:26Z,0.0051257619737540405,0.0786794044413003,-0.02384669970287339,-0.09383184462785721,-0.3513904809951782,-0.9315150380134583,0.039357167931019205,0.0020917859190144124,-0.011813014472019531,0.9991531084445318,0.1834522783756256,0.034931208938360214,0.4157215356826782,-0.004443958401679993,-0.013945341110229492,-0.003018796443939209
2025-09-20T01:56:26Z,0.005173601000959,0.08229149554627475,-0.015757848471165476,-0.09603188931941986,-0.3539471924304962,-0.9303221106529236,0.04115309235362306,0.00226043984313004,-0.007765746334335722,0.9991200190363768,0.18610605597496033,0.022929897531867027,0.39429211616516113,-0.004296556115150452,-0.01416119933128357,-0.005444169044494629
2025-09-20T01:56:26Z,0.004945541137220217,0.08594938857532698,-0.008022338174658554,-0.0983845666050911,-0.35656052827835083,-0.9290775060653687,0.0429709045046952,0.0022981406115058513,-0.0039012101697450522,0.9990659659345362,0.18504711985588074,0.017710067331790924,0.376911461353302,-0.0043686553835868835,-0.012504637241363525,-0.008967995643615723
2025-09-20T01:56:26Z,0.0047290483839475565,0.08958501700633771,-0.0006420195020063952,-0.10062220692634583,-0.35916972160339355,-0.9278320074081421,0.044778165711744394,0.0023477763988052087,-0.00021480941843799736,0.9989940995913835,0.17885921895503998,0.017686333507299423,0.3586103022098541,-0.003753349184989929,-0.012630462646484375,-0.011133670806884766
2025-09-20T01:56:26Z,0.004435614015064727,0.09311069613591808,0.006333660028560491,-0.10281386971473694,-0.36170101165771484,-0.926607608795166,0.04653117465227039,0.0023627704180136226,0.003266598980506679,0.9989085802811154,0.16719785332679749,0.018108658492565155,0.338055819272995,-0.005045384168624878,-0.013701826333999634,-0.01133948564529419
2025-09-20T01:56:26Z,0.004117753579914262,0.09639480150260483,0.012829032236676446,-0.10489064455032349,-0.36404359340667725,-0.9254567623138428,0.04816446241585654,0.0023654829362093547,0.006506202212598454,0.9988153366593956,0.15800514817237854,0.010608273558318615,0.30800867080688477,-0.006393827497959137,-0.016522496938705444,-0.010067760944366455
2025-09-20T01:56:26Z,0.0037595299801700417,0.09944701186349424,0.01843517150650727,-0.10675668716430664,-0.3662545680999756,-0.9243704080581665,0.04968352039980169,0.002335495753722478,0.00929947369491069,0.9987188644257033,0.15413181483745575,0.006663361098617315,0.2835302948951721,-0.0057352036237716675,-0.016710370779037476,-0.009121119976043701
2025-09-20T01:56:26Z,0.003384009506609402,0.10249716477063817,0.024044132044584755,-0.10863524675369263,-0.3684517741203308,-0.9232776761054993,0.051202070209280054,0.002305489355244964,0.01209264600245257,0.9986122903757468,0.15025849640369415,0.0027184481732547283,0.25905194878578186,-0.005064062774181366,-0.01691204309463501,-0.008180856704711914
2025-09-20T01:56:26Z,0.0029647796668413337,0.10551595066510981,0.02909441380517725,-0.11039812862873077,-0.37067142128944397,-0.9221794605255127,0.052706339410441554,0.0022472678649618273,0.014604603055279247,0.9985005999497314,0.1490878462791443,-0.0025978623889386654,0.24118253588676453,-0.006482698023319244,-0.015980005264282227,-0.0074599385261535645
2025-09-20T01:56:26Z,0.0023227142153890152,0.10855910085398825,0.03379392831353844,-0.11226746439933777,-0.3729435205459595,-0.9210370182991028,0.05422553213393054,0.002076146421648491,0.016934264496307597,0.9983828336348277,0.1513766050338745,-0.015264855697751045,0.22675210237503052,-0.007386013865470886,-0.015208601951599121,-0.005993187427520752
2025-09-20T01:56:26Z,0.0014820774575370816,0.11163035315328666,0.03825833218102152,-0.11425194889307022,-0.3752594292163849,-0.919851541519165,0.05576183163607098,0.0018068278019133406,0.019139540915921745,0.9982589049169529,0.14870941638946533,-0.020756572484970093,0.21696245670318604,-0.006583787500858307,-0.01081317663192749,-0.00907677412033081
2025-09-20T01:56:26Z,0.0006904405939898775,0.11456759813546766,0.04264703874504671,-0.11616672575473785,-0.37745246291160583,-0.9187137484550476,0.05723211394730458,0.0015653078056683787,0.02130669113425223,0.9981321760037165,0.1393686681985855,-0.014178572222590446,0.21704888343811035,-0.004147157073020935,-0.006712675094604492,-0.012201666831970215
2025-09-20T01:56:26Z,2.4123438114809916e-05,0.11732372300606683,0.04707447226045396,-0.11797298491001129,-0.3794667422771454,-0.9176532030105591,0.05861170236860442,0.0013918567176096207,0.023495287871222452,0.9980033163715581,0.1292715072631836,-0.00021118856966495514,0.21954739093780518,-0.0023429319262504578,-0.00503772497177124,-0.014130055904388428
2025-09-20T01:56:26Z,-0.0004196869102839603,0.11983680354583984,0.05149402430865197,-0.11956952512264252,-0.3812513053417206,-0.916706383228302,0.05986810187088455,0.0013322292657506458,0.025685406791193643,0.9978748399513092,0.11987671256065369,0.007590580731630325,0.2148965746164322,-0.0023003369569778442,-0.008386313915252686,-0.01274198293685913
2025-09-20T01:56:26Z,-0.000829677810684287,0.12189518724121473,0.055691232267238724,-0.12107238918542862,-0.3826386034488678,-0.9159307479858398,0.06089778613184114,0.0012819459293274924,0.027765065748604722,0.9977568194836924,0.10273409634828568,0.007309064734727144,0.21068091690540314,-0.0021303072571754456,-0.00671878457069397,-0.012803435325622559
2025-09-20T01:56:26Z,-0.001248453082118342,0.12395187553217905,0.05989036607166598,-0.12258109450340271,-0.3840181231498718,-0.9151524305343628,0.06192715094457768,0.0012316671829355717,0.02984457716066098,0.9976335047295227,0.08559148013591766,0.007027548737823963,0.20646525919437408,-0.0019544437527656555,-0.00505906343460083,-0.012867748737335205
2025-09-20T01:56:27Z,-0.0015320470779650232,0.12543308390485103,0.06411454050451752,-0.12397044897079468,-0.38486212491989136,-0.9146105647087097,0.06266772823154866,0.001244734792723049,0.03194077379577256,0.9975222850982594,0.058814503252506256,0.015773575752973557,0.210531547665596,-0.0009633302688598633,-0.0011679530143737793,-0.014234006404876709
2025-09-20T01:56:27Z,-0.0016040759171075012,0.12632302285819888,0.06841390260487969,-0.12518435716629028,-0.38515087962150574,-0.914323627948761,0.0631099630380695,0.0013587352296291165,0.034081483743684665,0.9974234066655093,0.028437010943889618,0.028362691402435303,0.21656766533851624,-0.0004339367151260376,0.0012629330158233643,-0.014762043952941895
2025-09-20T01:56:27Z,-0.0014431122324447068,0.12666350150929426,0.07287489463933033,-0.12622635066509247,-0.3849121034145355,-0.914280891418457,0.0632736378101485,0.0015859634182330243,0.03631071031877519,0.9973340548309044,0.003011787310242653,0.038401152938604355,0.22368094325065613,-0.0008928924798965454,-0.000904768705368042,-0.014408290386199951
2025-09-20T01:56:27Z,-0.0011699033882256304,0.12654053290305858,0.07747106654842113,-0.12719936668872833,-0.38422736525535583,-0.9144340753555298,0.06320323729905103,0.001865217378057238,0.038611401537145026,0.9972516129277139,-0.015426356345415115,0.04592739790678024,0.23021095991134644,-0.0026689767837524414,-0.004432857036590576,-0.014372825622558594
2025-09-20T01:56:27Z,-0.0007528984246193175,0.12609787369948194,0.08226102993632446,-0.12808962166309357,-0.3832201063632965,-0.9147323966026306,0.06296933679926932,0.0022154040351673103,0.0410135215808167,0.9971698059244859,-0.024941246956586838,0.051906947046518326,0.24424141645431519,-0.002886742353439331,-0.004413634538650513,-0.01332712173461914
2025-09-20T01:56:27Z,-0.00017997100266982588,0.12557076297622516,0.08741790907666423,-0.12893109023571014,-0.3820825219154358,-0.915090024471283,0.06268814475515004,0.002651886090664028,0.043603307842209296,0.997076570199082,-0.028043579310178757,0.06619548797607422,0.26915186643600464,-0.0013244003057479858,-0.002450495958328247,-0.015304267406463623
2025-09-20T01:56:27Z,0.0006524389300908258,0.125063831144438,0.09312695818761799,-0.12967684864997864,-0.38088488578796387,-0.9154837727546692,0.06240828936654708,0.0032339851660957556,0.046476048439920634,0.9969625974721881,-0.024395080283284187,0.08428080379962921,0.29733312129974365,0.0006458461284637451,-0.0017917752265930176,-0.016568779945373535
2025-09-20T01:56:27Z,0.001808790539627089,0.12467906480942105,0.09939740050724866,-0.13026879727840424,-0.37971699237823486,-0.9158848524093628,0.06217738186709009,0.0039964369887523785,0.04963800483153113,0.9968218489033562,-0.018819361925125122,0.10833559185266495,0.32413527369499207,0.002849370241165161,-0.002070873975753784,-0.017947256565093994
2025-09-20T01:56:27Z,0.0034056946142399683,0.12439166202011652,0.10626311889068318,-0.13060717284679413,-0.37854889035224915,-0.9163200855255127,0.06197769012806434,0.004998030340087928,0.05310950442203359,0.9966508331002284,-0.01748410239815712,0.13449542224407196,0.3547447919845581,0.0016276389360427856,0.0009445250034332275,-0.017850399017333984
2025-09-20T01:56:27Z,0.0054026614609362774,0.1241294367958663,0.1138438387893043,-0.13075801730155945,-0.3772953152656555,-0.916815459728241,0.06177082203380654,0.0062204178949645545,0.056948727752470146,0.9964447747835626,-0.013307674787938595,0.15982380509376526,0.3908781409263611,0.0004039257764816284,0.001868128776550293,-0.017612576484680176
2025-09-20T01:56:27Z,0.007828260956548733,0.12397966126495262,0.12205028777090114,-0.13066928088665009,-0.37604430317878723,-0.917341947555542,0.061596096484333195,0.007677472501562714,0.06111169927347847,0.996198876004597,-0.0076719061471521854,0.17946577072143555,0.42162472009658813,-0.001384839415550232,-0.0018150508403778076,-0.015423834323883057
2025-09-20T01:56:27Z,0.010468197290743596,0.12403719251891446,0.13077619901646634,-0.13050776720046997,-0.3748936057090759,-0.9178357720375061,0.061504208251052156,0.009262585685318278,0.06553871290033426,0.9959096133839433,0.0011193170212209225,0.1831703782081604,0.4507053792476654,-0.005391046404838562,-0.002244293689727783,-0.01124727725982666
2025-09-20T01:56:27Z,0.01324667361287721,0.1242267286670445,0.14030775547996566,-0.13041438162326813,-0.37373048067092896,-0.918323278427124,0.061456019662677545,0.010945282655884457,0.07036976294561048,0.9955658123840251,0.009855857118964195,0.20874616503715515,0.4902800917625427,-0.0029858052730560303,-0.002263486385345459,-0.014693915843963623
2025-09-20T01:56:27Z,0.016362846812075314,0.12458827732758361,0.15037186614164721,-0.13013312220573425,-0.3726252615451813,-0.9188121557235718,0.06146255760705348,0.012818445059539716,0.07547479461710101,0.9951690777353958,0.015659265220165253,0.22712795436382294,0.507297933101654,-0.0013957768678665161,-0.008207976818084717,-0.015161573886871338
2025-09-20T01:56:27Z,0.019674639870700665,0.12512001859767638,0.1606977369200063,-0.12972316145896912,-0.371612012386322,-0.9192804098129272,0.061526485081037356,0.01480394506940398,0.08071458356978263,0.994726303440627,0.018354173749685287,0.23809994757175446,0.5109724998474121,0.0004130154848098755,-0.011207491159439087,-0.01543271541595459
2025-09-20T01:56:27Z,0.02320128767103054,0.12576011476927193,0.1709848036145028,-0.12908916175365448,-0.37067705392837524,-0.919746994972229,0.06161633474526704,0.016900496761671907,0.08594010040592814,0.9942495048259871,0.01816609501838684,0.2488384246826172,0.5078811645507812,0.0003581494092941284,-0.012355834245681763,-0.014926433563232422
2025-09-20T01:56:27Z,0.02683993716382425,0.12633820030508916,0.18108950902210316,-0.12828800082206726,-0.36968639492988586,-0.9202576279640198,0.0616518597098498,0.019045448845895846,0.09107629373540262,0.9937510674235156,0.01439274474978447,0.24287667870521545,0.49325525760650635,-0.0033043622970581055,-0.013880908489227295,-0.00940561294555664
2025-09-20T01:56:27Z,0.03026044463538996,0.1269309018288451,0.19086355437631017,-0.12758773565292358,-0.36873486638069153,-0.9207366108894348,0.06168829376414708,0.021073165834260926,0.096039476654154,0.9932405076699505,0.010807041078805923,0.2235095202922821,0.4691576361656189,-0.008256733417510986,-0.01514434814453125,-0.002214193344116211
2025-09-20T01:56:27Z,0.03325108886707489,0.127533764716792,0.2000346820083102,-0.1271176040172577,-0.36786338686943054,-0.9211501479148865,0.061739834789994404,0.022870051654681166,0.10068806950462564,0.9927370525768577,0.00930503848940134,0.19348295032978058,0.4400192201137543,-0.010616615414619446,-0.016483336687088013,0.001430809497833252
2025-09-20T01:56:27Z,0.035775808886507034,0.12819527795458818,0.20863659820693164,-0.12692280113697052,-0.3671152889728546,-0.9214754104614258,0.061836632171783375,0.024421984463764597,0.10503824839400093,0.9922431867724633,0.013467495329678059,0.16819359362125397,0.4139446020126343,-0.01059269905090332,-0.016681164503097534,0.0019087791442871094
2025-09-20T01:56:27Z,0.03780720857311786,0.12903386983621767,0.2167468364566955,-0.12705211341381073,-0.366590291261673,-0.9216665625572205,0.062042241422415836,0.02572464999955906,0.10912864063667527,0.9917558539248778,0.024246351793408394,0.1416715681552887,0.38952359557151794,-0.010324880480766296,-0.018370211124420166,0.00041937828063964844
2025-09-20T01:56:27Z,0.039269752494761404,0.130225935559451,0.22410006540548652,-0.12751561403274536,-0.3664959669113159,-0.9216400980949402,0.06245578030632464,0.026743259483669662,0.11282675956276918,0.991289014223956,0.031147371977567673,0.1281260997056961,0.3661128878593445,-0.008655399084091187,-0.018013685941696167,-0.003520071506500244
2025-09-20T01:56:27Z,0.040723651574735585,0.13142862295497895,0.23145269912212238,-0.12797847390174866,-0.3663982152938843,-0.9216148257255554,0.062868369935083,0.0277614674131749,0.11652317961403734,0.9908072147599144,0.0380483902990818,0.11458062380552292,0.342702180147171,-0.006986558437347412,-0.017660558223724365,-0.0074582695960998535
2025-09-20T01:56:27Z,0.04192846831869128,0.13275121297389636,0.23820416826252672,-0.12851914763450623,-0.36649659276008606,-0.9215004444122314,0.06335721909868178,0.028647639306264853,0.1199135550638934,0.9903462285101966,0.03984755650162697,0.104121632874012,0.3216537535190582,-0.006907716393470764,-0.014455705881118774,-0.00959402322769165
2025-09-20T01:56:27Z,0.04308843765734274,0.13403205175518593,0.24450831641316317,-0.1289859563112259,-0.36662039160728455,-0.9213860034942627,0.0638294230562063,0.029498353478736656,0.12307972230751942,0.9899024818202494,0.03423427417874336,0.10070014744997025,0.30173438787460327,-0.0062684714794158936,-0.01203930377960205,-0.009800076484680176
2025-09-20T01:56:27Z,0.04411467512283333,0.13512444709681312,0.25041332256660404,-0.12947122752666473,-0.36662930250167847,-0.9213143587112427,0.06421805213516127,0.030261659230797697,0.12604189902500718,0.9894815129011334,0.026581719517707825,0.09497826546430588,0.2807118594646454,-0.00626102089881897,-0.011094003915786743,-0.009083807468414307
2025-09-20T01:56:27Z,0.045136330841318385,0.1360818462276835,0.2558125542564273,-0.1298324465751648,-0.3665921092033386,-0.9212782979011536,0.06454404089525173,0.03100037221917464,0.12875196714863557,0.9890883443434163,0.025920573621988297,0.08921782672405243,0.25466758012771606,-0.006590917706489563,-0.014552414417266846,-0.007654130458831787
2025-09-20T01:56:27Z,0.04614001796392849,0.13699544548782597,0.2606713347610864,-0.130076602101326,-0.36660027503967285,-0.9212406277656555,0.06485455318303278,0.03171178943590472,0.13119317497434327,0.9887246488853005,0.027202438563108444,0.07870161533355713,0.22278492152690887,-0.006393134593963623,-0.017664164304733276,-0.0070182085037231445
2025-09-20T01:56:27Z,0.04696634094131739,0.13790418471176497,0.26486277840767386,-0.13032253086566925,-0.3667130172252655,-0.9211609959602356,0.06518218643309048,0.03231513487828694,0.13329816460386174,0.988401974429581,0.030537104234099388,0.06260037422180176,0.19068562984466553,-0.009370341897010803,-0.018457353115081787,-0.006824672222137451
2025-09-20T01:56:27Z,0.047527709368792824,0.13881563376353206,0.26840976745569883,-0.13065789639949799,-0.36693525314331055,-0.9210249781608582,0.06553738430801676,0.03276811810099345,0.13507564806210295,0.988122202667245,0.030912289395928383,0.047871120274066925,0.16444292664527893,-0.00927715003490448,-0.013867706060409546,-0.006275653839111328
2025-09-20T01:56:27Z,0.04786409814109146,0.13971139435016822,0.2715406800878321,-0.1311003863811493,-0.367212176322937,-0.9208517074584961,0.0659056847751121,0.03309655378635044,0.13663973445744013,0.9878716738041599,0.03009388968348503,0.03757267817854881,0.1467359960079193,-0.008326813578605652,-0.009660661220550537,-0.005737483501434326
2025-09-20T01:56:27Z,0.04809239139510612,0.1405742304964479,0.2743745083524501,-0.13157054781913757,-0.36750826239585876,-0.920666515827179,0.06626925915461364,0.03336076195699263,0.13805296515578527,0.9876419420060225,0.027282318100333214,0.031653888523578644,0.13460204005241394,-0.005896583199501038,-0.007731914520263672,-0.007979810237884521
2025-09-20T01:56:27Z,0.04827454156799735,0.14142695948474018,0.2769769128066474,-0.1320275366306305,-0.3678334951400757,-0.92047119140625,0.06663431299030508,0.03359487206743738,0.1393500195693272,0.9874272888638121,0.02492390386760235,0.029175367206335068,0.12151680886745453,-0.0043038129806518555,-0.009140491485595703,-0.010017812252044678
2025-09-20T01:56:27Z,0.04846369903472381,0.14223165957169712,0.27930053509522784,-0.1324109584093094,-0.36816197633743286,-0.9202848076820374,0.06697936081361804,0.0338208054532678,0.14050909189598282,0.98723194281936,0.026344917714595795,0.03190832957625389,0.10657788068056107,-0.0014046132564544678,-0.01170840859413147,-0.011025965213775635
2025-09-20T01:56:27Z,0.048681684229489,0.1429737253709728,0.2813262768418284,-0.13269640505313873,-0.36848416924476624,-0.9201146960258484,0.06729606147825115,0.03404744754096191,0.14152146387512202,0.9870580208555292,0.031668685376644135,0.032154157757759094,0.0889270082116127,-0.0010183900594711304,-0.014703541994094849,-0.012121975421905518
2025-09-20T01:56:27Z,0.049055604783970246,0.14372663521298748,0.28297522305888345,-0.13275019824504852,-0.3688814640045166,-0.9199477434158325,0.06761307379938251,0.03433971820588379,0.14235311124684452,0.9869066141990687,0.03155241906642914,0.03393552079796791,0.07345965504646301,-0.0003826916217803955,-0.01416519284248352,-0.013256072998046875
2025-09-20T01:56:27Z,0.049663076972133784,0.14435279593647787,0.2841743238901592,-0.1324818879365921,-0.3692416250705719,-0.9198419451713562,0.0678581572187125,0.034723632864969316,0.14296979255661446,0.9867872306302212,0.023793205618858337,0.04018356278538704,0.06196300685405731,-0.0008316487073898315,-0.012625902891159058,-0.013411402702331543
2025-09-20T01:56:27Z,0.050269821798128764,0.14497970067621335,0.28537315494952664,-0.13221411406993866,-0.3696020841598511,-0.9197356700897217,0.0681032133240678,0.03510751704479981,0.14358639043538352,0.9866672475589997,0.016033992171287537,0.04643160104751587,0.05046635866165161,-0.001280084252357483,-0.01108640432357788,-0.013567209243774414
2025-09-20T01:56:27Z,0.051078737763215136,0.14542415945485446,0.286311017882066,-0.13169631361961365,-0.3698418438434601,-0.9197136163711548,0.06824783924360124,0.03556968768243633,0.14407988324767051,0.986568758668707,0.010808372870087624,0.045833442360162735,0.043528445065021515,-0.0037888139486312866,-0.010800808668136597,-0.010326921939849854
2025-09-20T01:56:27Z,0.05176188196919498,0.14576251057226894,0.2870917332804358,-0.131255641579628,-0.3700123727321625,-0.9197080135345459,0.0683515840186307,0.035957105140914596,0.14449085285945462,0.9864873850860923,0.010318349115550518,0.033682167530059814,0.0339706651866436,-0.00548909604549408,-0.012412846088409424,-0.007556021213531494
2025-09-20T01:56:27Z,0.05226820598319475,0.14606945484449368,0.28762159735407344,-0.13091880083084106,-0.370198518037796,-0.9196811318397522,0.06845687931066852,0.036246580320834686,0.14477184739401783,0.9864283278284114,0.012083835899829865,0.023274075239896774,0.020959053188562393,-0.004906654357910156,-0.015307605266571045,-0.007507741451263428
2025-09-20T01:56:27Z,0.052608087217062525,0.14643331212952904,0.2879040743887009,-0.13067878782749176,-0.3704802095890045,-0.9196017980575562,0.0686066867841254,0.036449553916058954,0.14492561754601577,0.98638784164999,0.014678618870675564,0.016901332885026932,0.008477837778627872,-0.003992170095443726,-0.015946388244628906,-0.009516656398773193
2025-09-20T01:56:27Z,0.052901647898276456,0.14680046191426824,0.28787627811417443,-0.13040956854820251,-0.37081974744796753,-0.9195031523704529,0.06876709805322206,0.03661928261308057,0.14492483995903885,0.9863705081636763,0.017049165442585945,0.014214267022907734,-0.009339605458080769,-0.0030032098293304443,-0.016697943210601807,-0.010537505149841309
2025-09-20T01:56:27Z,0.05316672336455007,0.14720200379314563,0.28746929576470476,-0.13007938861846924,-0.37125760316848755,-0.9193732142448425,0.068953518356825,0.03676430787027596,0.1447363937425616,0.986379737839128,0.016071990132331848,0.007068035192787647,-0.025771569460630417,-0.0030195266008377075,-0.016156643629074097,-0.009222865104675293
2025-09-20T01:56:27Z,0.05329188282127051,0.14762540597335633,0.28672687253451024,-0.12980049848556519,-0.3717745542526245,-0.9192037582397461,0.0691670727044373,0.03683018304263268,0.14437788691499553,0.9864148512191342,0.015224667266011238,-0.00023822253569960594,-0.04122377932071686,-0.00278608500957489,-0.01424458622932434,-0.008625388145446777
2025-09-20T01:56:27Z,0.05329093606076993,0.1479623695864467,0.2857560397053382,-0.1295827329158783,-0.372252881526947,-0.919040858745575,0.06935130811188762,0.036819724839081996,0.1439016739292433,0.9864719013077283,0.012893745675683022,-0.007689146790653467,-0.05134434998035431,-0.0023907870054244995,-0.01223677396774292,-0.008737564086914062
2025-09-20T01:56:27Z,0.05325842512512462,0.14830041694596213,0.28459957253486107,-0.1293506920337677,-0.37276461720466614,-0.9188660979270935,0.06954176024893544,0.036787146437735826,0.14333277754650228,0.9865425511023012,0.015469842590391636,-0.008228015154600143,-0.05674833059310913,-0.0005038082599639893,-0.012063682079315186,-0.01052182912826538
2025-09-20T01:56:27Z,0.05322860523103013,0.1486689711719997,0.2833938931696042,-0.1291051059961319,-0.37331241369247437,-0.9186782240867615,0.0697479662803195,0.03675608897168916,0.14273989664039174,0.986615125403772,0.016702087596058846,-0.0095144584774971,-0.05596815049648285,4.8041343688964844e-05,-0.009450554847717285,-0.009371161460876465
2025-09-20T01:56:27Z,0.05315419102996883,0.1490106610964483,0.28222787118114845,-0.1289089024066925,-0.37382835149765015,-0.9184959530830383,0.06994334050278865,0.03670232702593983,0.14216476748910004,0.9866863180725982,0.015241187997162342,-0.011557006277143955,-0.05447515845298767,-0.00039693713188171387,-0.007964283227920532,-0.008680164813995361
2025-09-20T01:56:27Z,0.053210234171196,0.14931397382432676,0.28105191235446864,-0.12858958542346954,-0.37431076169013977,-0.918344259262085,0.0701106724452365,0.036709721944227044,0.14158894911217249,0.9867569928381991,0.013954772613942623,-0.0030529415234923363,-0.05947168916463852,0.00037775933742523193,-0.011335909366607666,-0.011395454406738281
2025-09-20T01:56:28Z,0.053624138569433336,0.14954725066960586,0.279608472866634,-0.12787766754627228,-0.37477585673332214,-0.918254017829895,0.07022315917513804,0.036879313095379875,0.14089313211861468,0.9868423002654646,0.011791061609983444,0.00484299473464489,-0.05997144430875778,0.0018081516027450562,-0.007700175046920776,-0.012982308864593506
2025-09-20T01:56:28Z,0.0540383980372122,0.14977983245558488,0.27816483634653294,-0.1271650642156601,-0.3752397298812866,-0.9181634783744812,0.0703355667478896,0.03704888419764523,0.1401972353591994,0.986926939648827,0.00962735153734684,0.01273893192410469,-0.06047120317816734,0.0032378509640693665,-0.004065603017807007,-0.014569461345672607
2025-09-20T01:56:28Z,0.054453005068578496,0.15001189938902043,0.27672109162426756,-0.12645184993743896,-0.37570270895957947,-0.9180726408958435,0.07044796775190443,0.03721843287112563,0.13950126841662278,0.9870111621705814,0.007463640999048948,0.02063486911356449,-0.060970958322286606,0.004666969180107117,-0.00043198466300964355,-0.01615697145462036
2025-09-20T01:56:28Z,0.055041191763233466,0.15011310670780237,0.27536423271587734,-0.12559665739536285,-0.3760310113430023,-0.9180556535720825,0.07048234803338184,0.037467749409422185,0.13885319290216844,0.9870906600632172,0.004735860042273998,0.021943816915154457,-0.059939514845609665,0.0034438520669937134,6.470084190368652e-05,-0.013612627983093262
2025-09-20T01:56:28Z,0.0555580572939902,0.15016832280815712,0.2740876664448221,-0.12482451647520065,-0.3763030767440796,-0.9180494546890259,0.07049779662008017,0.037681576956376694,0.13824181731755744,0.9871671910166215,0.0022775880061089993,0.011980975978076458,-0.06019305810332298,0.0013868659734725952,-0.0011379122734069824,-0.008139491081237793
2025-09-20T01:56:28Z,0.055824866828457234,0.15019645263890077,0.2727596715530625,-0.12426908314228058,-0.3765590786933899,-0.9180198311805725,0.07051833486408943,0.03776833519946049,0.13759595005800704,0.9872527238256297,0.0037296218797564507,-0.004987827502191067,-0.06624827533960342,-0.0016175732016563416,-0.004474341869354248,-0.004589438438415527
2025-09-20T01:56:28Z,0.05587941859102974,0.1501401173772578,0.27124364002158846,-0.12386229634284973,-0.3767703175544739,-0.9179881811141968,0.07051538517982209,0.037738065211576174,0.1368489935140667,0.987357880684491,0.00209404481574893,-0.01977543905377388,-0.08312567323446274,-0.0020839422941207886,-0.009240984916687012,-0.005021154880523682
2025-09-20T01:56:28Z,0.055614956222248824,0.1499615665933812,0.2693175620181549,-0.12364903837442398,-0.37694063782691956,-0.917946994304657,0.07048145618915712,0.03752779902841389,0.1358871815322048,0.9875011412264648,-0.0009074094705283642,-0.03552115708589554,-0.10403615236282349,-0.00479484349489212,-0.01276656985282898,-0.006456136703491211
2025-09-20T01:56:28Z,0.05518711057958506,0.14971009508776933,0.26693669465292386,-0.12347650527954102,-0.3771219849586487,-0.9178957343101501,0.07043064192629263,0.037216163459060786,0.13469426434705897,0.9876799733915411,-0.003526905318722129,-0.04721665382385254,-0.12698832154273987,-0.005909264087677002,-0.013481438159942627,-0.008398115634918213
2025-09-20T01:56:28Z,0.054606933123021575,0.14948002728704382,0.2641389632656784,-0.12334487587213516,-0.3773929178714752,-0.9178020358085632,0.0704075993400633,0.03681616390385049,0.13329007263059608,0.9878871123103402,-0.005269903689622879,-0.052182987332344055,-0.15035809576511383,-0.005067989230155945,-0.013233870267868042,-0.01288682222366333
2025-09-20T01:56:28Z,0.05398049949941613,0.14924023071463205,0.2608497715137765,-0.12313780933618546,-0.37773701548576355,-0.9176883101463318,0.07039075127814552,0.03637552422462334,0.1316411032789376,0.9881257175876924,-0.005925830919295549,-0.05232441797852516,-0.17080476880073547,-0.004643790423870087,-0.012265563011169434,-0.01443856954574585
2025-09-20T01:56:28Z,0.05354282389436518,0.14903813126375054,0.25720099524674084,-0.12267103791236877,-0.37817394733428955,-0.9175708889961243,0.07038548100424305,0.036018031550418515,0.12982102587948768,0.988379974864301,-0.0038401430938392878,-0.04761945456266403,-0.18755850195884705,-0.004035964608192444,-0.011147886514663696,-0.013904094696044922
2025-09-20T01:56:28Z,0.05313381660088192,0.1488469308772742,0.2532614405782739,-0.12210661917924881,-0.3786667287349701,-0.9174429178237915,0.07038787810287818,0.03566528902171158,0.1278578597942624,0.9886484767504489,-0.002217676490545273,-0.042761072516441345,-0.20346610248088837,-0.004944257438182831,-0.010685205459594727,-0.012190401554107666
2025-09-20T01:56:28Z,0.052831223610214556,0.14871336199025154,0.24888238490511072,-0.12133809179067612,-0.37928202748298645,-0.9172906875610352,0.07041873570194736,0.0353533309243329,0.12568108534851133,0.9889365897385217,0.0033891131170094013,-0.0425204299390316,-0.2263016253709793,-0.008170612156391144,-0.01192539930343628,-0.011568248271942139
2025-09-20T01:56:28Z,0.05263065533371773,0.1486456679108932,0.24409146879802823,-0.12037531286478043,-0.380021333694458,-0.9171115159988403,0.07048208920950878,0.035081298676584036,0.12330412682758005,0.9892409205933514,0.008993901312351227,-0.04776913300156593,-0.24458755552768707,-0.009254030883312225,-0.01104012131690979,-0.01084047555923462
2025-09-20T01:56:28Z,0.05229990704561531,0.1486359746302999,0.23894107576077497,-0.11944267153739929,-0.3808673918247223,-0.9168824553489685,0.070587367832351,0.03473546385819765,0.12074447670304894,0.9895612948454771,0.012975269928574562,-0.05214633047580719,-0.25889796018600464,-0.00811430811882019,-0.009580224752426147,-0.010565698146820068
2025-09-20T01:56:28Z,0.05183997865944644,0.14866013046282775,0.23343323061947352,-0.1185382530093193,-0.38179653882980347,-0.9166133999824524,0.07072185963120015,0.03431468008629566,0.11800279722824995,0.9898970328397715,0.010383103042840958,-0.058215778321027756,-0.2693661153316498,-0.007320143282413483,-0.007442116737365723,-0.010021865367889404
2025-09-20T01:56:28Z,0.05138019081873325,0.14868677936662528,0.22792539700152548,-0.11762845516204834,-0.3827206492424011,-0.9163451790809631,0.07085579038997432,0.033893627120581464,0.11526020186057097,0.9902250474464978,0.007790937088429928,-0.06428522616624832,-0.2798342704772949,-0.006531335413455963,-0.005308985710144043,-0.009477198123931885
2025-09-20T01:56:28Z,0.05078012801206182,0.1485148653041552,0.22225514652603548,-0.11679854243993759,-0.3834831714630127,-0.9161325097084045,0.07090015136173793,0.03338606596370366,0.11242957970184352,0.9905645090379349,-0.0032739080488681793,-0.06843505054712296,-0.28664809465408325,-0.003983132541179657,-0.004386156797409058,-0.010000944137573242
2025-09-20T01:56:28Z,0.05010011500951312,0.14804023927322474,0.21642452803795645,-0.11599135398864746,-0.3839884102344513,-0.9160234332084656,0.07079916921949633,0.032817203076548895,0.10951316022249097,0.9909174240796058,-0.020245544612407684,-0.07219063490629196,-0.2959480285644531,-0.0024246349930763245,-0.0046024322509765625,-0.010456562042236328
2025-09-20T01:56:28Z,0.04948724291413474,0.14716281138989865,0.2102666294592827,-0.11502905189990997,-0.3841710686683655,-0.9160681962966919,0.07049744688713852,0.032250205263722256,0.10643256773124005,0.9912930651758908,-0.03673378750681877,-0.07478021830320358,-0.3138536214828491,-0.0016579777002334595,-0.007462292909622192,-0.010590553283691406
2025-09-20T01:56:28Z,0.04881133370651027,0.14599264328775327,0.2038243098739679,-0.11404289305210114,-0.3841228187084198,-0.9162116646766663,0.07005543389650107,0.03162952247242544,0.10320523801169573,0.9916855284423713,-0.04848084598779678,-0.07597071677446365,-0.33140507340431213,-0.00077105313539505,-0.010323911905288696,-0.011426985263824463
2025-09-20T01:56:28Z,0.04819168467354248,0.14462460575703806,0.19698260976420562,-0.11289627850055695,-0.3839462697505951,-0.9164276719093323,0.06951531451965696,0.031016456348066726,0.09977901064740353,0.9920934905819373,-0.05451536178588867,-0.07991344481706619,-0.3504885137081146,8.624047040939331e-05,-0.012743473052978516,-0.01204371452331543
2025-09-20T01:56:28Z,0.047597222757090524,0.14307435454079842,0.1896626472758038,-0.1115972176194191,-0.3836654722690582,-0.9167043566703796,0.06888738245774033,0.030394965780397656,0.09611355590689893,0.9925183979446957,-0.0598648339509964,-0.0782332494854927,-0.35852259397506714,0.00038404762744903564,-0.00910446047782898,-0.011775791645050049
2025-09-20T01:56:28Z,0.04699143029417774,0.14152841208995562,0.18234333893147908,-0.1103006899356842,-0.38337481021881104,-0.9169828295707703,0.06825844687275492,0.029773030960781564,0.0924467068215517,0.9929289197698288,-0.06521430611610413,-0.07655305415391922,-0.36655664443969727,0.000684395432472229,-0.005475372076034546,-0.011506080627441406
2025-09-20T01:56:28Z,0.04651248595256456,0.1399088367108588,0.1749560253179331,-0.10886146128177643,-0.38301345705986023,-0.9173057675361633,0.06758461854877973,0.0292136108866021,0.08874843279931198,0.9933289647498312,-0.06677363812923431,-0.07353688776493073,-0.3643685281276703,0.0005875527858734131,-0.0047047436237335205,-0.011004626750946045
2025-09-20T01:56:28Z,0.0459497189109904,0.1383919569812483,0.16764337338139787,-0.1075117215514183,-0.38272058963775635,-0.917587161064148,0.06696107645368617,0.02862458500303263,0.08508395333936226,0.9937089301261245,-0.05987633392214775,-0.08024264127016068,-0.3605080842971802,-0.0015386193990707397,-0.005647569894790649,-0.00910186767578125
2025-09-20T01:56:28Z,0.04525021454857615,0.1370116922367163,0.16047531108180202,-0.10631867498159409,-0.3825173079967499,-0.9178109169006348,0.06640555536578797,0.027982654884889734,0.08148675114004533,0.9940658868388467,-0.054699577391147614,-0.08196543902158737,-0.3592800796031952,0.000634901225566864,-0.00903591513633728,-0.010507702827453613
2025-09-20T01:56:28Z,0.04453204918293936,0.1356583278152351,0.1531093457983618,-0.10508554428815842,-0.38235390186309814,-0.9180209636688232,0.06586306242950944,0.027330240628170063,0.07778973128709966,0.9944162230122233,-0.04984872043132782,-0.08210823684930801,-0.3733205497264862,0.0008364245295524597,-0.012327104806900024,-0.012624204158782959
2025-09-20T01:56:28Z,0.0438566948376796,0.1343847565125725,0.14544822297542445,-0.10373137891292572,-0.38229140639305115,-0.9182010293006897,0.06535867339253404,0.026696642899712544,0.07394694145916376,0.9947598616480339,-0.041340701282024384,-0.08890252560377121,-0.39048197865486145,-0.0008739903569221497,-0.013259977102279663,-0.011945784091949463
2025-09-20T01:56:28Z,0.0431270449712178,0.13333844865157193,0.13762435099531065,-0.10238076746463776,-0.3824441432952881,-0.9182890057563782,0.06496748293271623,0.02604261247487451,0.07002223655677585,0.9950867938658051,-0.030838532373309135,-0.08922608941793442,-0.38411179184913635,-0.0013080984354019165,-0.00617671012878418,-0.010585427284240723
2025-09-20T01:56:28Z,0.042402804491094466,0.13272871863252522,0.13017571835128383,-0.10112033784389496,-0.3829277753829956,-0.9182270765304565,0.06478452602765285,0.025420685803581353,0.06628705741696836,0.9953706003903114,-0.018838047981262207,-0.08350123465061188,-0.3715529143810272,0.00038636475801467896,-0.005801022052764893,-0.011237621307373047
2025-09-20T01:56:28Z,0.04167405786560028,0.132124350094316,0.12272725766032722,-0.09985627979040146,-0.38340210914611816,-0.9181675314903259,0.0646006300130996,0.024798389638742004,0.06255092506330656,0.99564004776167,-0.006837565451860428,-0.07777637988328934,-0.3589940071105957,0.0020772069692611694,-0.005434572696685791,-0.011887431144714355
2025-09-20T01:56:28Z,0.04106924243754388,0.13184142844062452,0.11539359294175175,-0.09850551933050156,-0.3841401934623718,-0.9180048704147339,0.06456803702805819,0.024252239737541773,0.05887774641707772,0.9958795679010033,0.0031764842569828033,-0.07726942002773285,-0.361773818731308,0.0017709657549858093,-0.008553624153137207,-0.01096266508102417
2025-09-20T01:56:28Z,0.0403808578763455,0.1316787935528304,0.10819926938397277,-0.09726212173700333,-0.3849557638168335,-0.9177958369255066,0.06459287275550844,0.02367269560765717,0.05527142757161579,0.9960985943514263,0.012425272725522518,-0.07863816618919373,-0.3511149287223816,0.000779472291469574,-0.0029612183570861816,-0.00887233018875122
2025-09-20T01:56:28Z,0.03960093252925494,0.13163389001723824,0.10131364319260461,-0.09617803990840912,-0.38582485914230347,-0.9175450801849365,0.06467183317229702,0.023060555967057292,0.05181613523021938,0.9962935009652156,0.01631918177008629,-0.08128541707992554,-0.32884150743484497,-0.0013030394911766052,0.0019120872020721436,-0.007704973220825195
2025-09-20T01:56:28Z,0.03890771657801473,0.131721854867004,0.09488419158378171,-0.0951295793056488,-0.3867438733577728,-0.9172674417495728,0.06480631111965607,0.022509179437138562,0.04859133427282681,0.996459842600531,0.024029195308685303,-0.07265205681324005,-0.3057503402233124,0.0006673559546470642,0.0015382766723632812,-0.012415528297424316
2025-09-20T01:56:28Z,0.03841784101608174,0.13204260412352897,0.08889486850757866,-0.09400828182697296,-0.3878081738948822,-0.9169336557388306,0.06504444415939119,0.022077806129484786,0.04559377024265646,0.9965956357044957,0.03198762238025665,-0.05829687416553497,-0.2826656997203827,0.004419736564159393,0.002106398344039917,-0.01688861846923828
2025-09-20T01:56:28Z,0.03805226256551819,0.13243753282107504,0.08334132805504595,-0.09288433194160461,-0.3888755440711975,-0.9165960550308228,0.06531015986932133,0.021722875706994486,0.04281757964201725,0.9967092264880025,0.03559308871626854,-0.044941939413547516,-0.2649313807487488,0.00590534508228302,0.0023045241832733154,-0.019226491451263428
2025-09-20T01:56:28Z,0.037888030723652315,0.13283572906119276,0.07812916853349838,-0.09166215360164642,-0.38989490270614624,-0.9162859916687012,0.06556833743870667,0.02147825243087141,0.04021781217564267,0.996805828652873,0.033385030925273895,-0.03780584782361984,-0.251370370388031,0.005237556993961334,0.005342394113540649,-0.019294440746307373
2025-09-20T01:56:28Z,0.03779637769493598,0.13308112451168386,0.07318348817754322,-0.09043844789266586,-0.39073464274406433,-0.9160498380661011,0.06574530757992256,0.021274686314569368,0.03775175634223223,0.9968949829976969,0.02782118320465088,-0.0367184653878212,-0.2317853718996048,0.0031001195311546326,0.010637074708938599,-0.015396654605865479
2025-09-20T01:56:28Z,0.03759070038147395,0.13328835598020355,0.0687005206515409,-0.08943860232830048,-0.3914763033390045,-0.9158313274383545,0.06589979281828236,0.021028158561389884,0.03551207812307962,0.9969723082786252,0.02723529189825058,-0.04043632000684738,-0.2084520310163498,0.0005430951714515686,0.011426031589508057,-0.010797083377838135
2025-09-20T01:56:28Z,0.03732240124718514,0.1335361070600417,0.06464622487753072,-0.08860835433006287,-0.39219745993614197,-0.9156034588813782,0.06607029600810482,0.020764613660366762,0.03348418804193864,0.9970367120587137,0.03229362890124321,-0.04507466405630112,-0.18761427700519562,-0.0004551932215690613,0.009344518184661865,-0.009933292865753174
2025-09-20T01:56:28Z,0.036977695354060536,0.13390859524816495,0.060962131640516004,-0.0879465639591217,-0.39298322796821594,-0.9153302907943726,0.06629960565630841,0.02047645419234881,0.031639205218499916,0.9970876738973131,0.03739602118730545,-0.04463788494467735,-0.17297890782356262,-0.00017652660608291626,0.005329519510269165,-0.011023402214050293
2025-09-20T01:56:28Z,0.03658237652788901,0.13431720528217908,0.05747687241071729,-0.0873829647898674,-0.39377444982528687,-0.9150441884994507,0.06654483045380162,0.0201693983625116,0.029891823740951014,0.9971315306154096,0.041504643857479095,-0.04183822497725487,-0.17054730653762817,0.00029966235160827637,0.0002262592315673828,-0.01230555772781372
2025-09-20T01:56:28Z,0.03622098010402915,0.1348328903355134,0.0539931449041332,-0.0867885947227478,-0.39465969800949097,-0.9147193431854248,0.06684207947717194,0.019879895532816206,0.028147069420529733,0.9971682462850258,0.045185595750808716,-0.04110299050807953,-0.17303548753261566,-0.001088164746761322,-0.0030496418476104736,-0.01320958137512207
2025-09-20T01:56:28Z,0.0359163296946242,0.13541101411388234,0.05038404433604297,-0.08610791712999344,-0.3956131637096405,-0.9143717288970947,0.06717013095780952,0.01961425495795906,0.02634208239770292,0.997200775920224,0.04262591525912285,-0.03535168245434761,-0.17380736768245697,-0.000562712550163269,-0.002223670482635498,-0.015180766582489014
2025-09-20T01:56:28Z,0.03561377130516815,0.13599025908500018,0.04677482630829849,-0.08542356640100479,-0.39656397700309753,-0.9140239953994751,0.06749797163776913,0.01934855188985695,0.02453700125805443,0.9972298407748291,0.04006623476743698,-0.02960037626326084,-0.17457924783229828,-4.093348979949951e-05,-0.001400381326675415,-0.017152070999145508
2025-09-20T01:56:28Z,0.03561629561178009,0.13655238353266538,0.0432232197451848,-0.08447401225566864,-0.39748886227607727,-0.9137104153633118,0.06781250266552225,0.019235634836312666,0.022770742784693064,0.9972525892840621,0.03837728127837181,-0.02290460467338562,-0.17400890588760376,-0.0002202242612838745,-0.002241283655166626,-0.014876365661621094
2025-09-20T01:56:28Z,0.03565140849075298,0.1371352616424554,0.039624482833627746,-0.08348081260919571,-0.39843448996543884,-0.9133898019790649,0.06813729929383926,0.01913649768981487,0.020982260382442466,0.997271565176427,0.04050556942820549,-0.015995506197214127,-0.17996545135974884,0.0011001229286193848,-0.004717916250228882,-0.012785851955413818
2025-09-20T01:56:29Z,0.03576841958079678,0.13782227627034807,0.03586950508085275,-0.08237067610025406,-0.39948898553848267,-0.9130299091339111,0.06851458075383625,0.019072607238099556,0.019119549829754456,0.9972844302162538,0.047050591558218,-0.02004254050552845,-0.1901365965604782,0.00011965632438659668,-0.009324222803115845,-0.009619951248168945
2025-09-20T01:56:29Z,0.035765023021631474,0.1385633297047494,0.03191500211537873,-0.08131571859121323,-0.4006110429763794,-0.9126327633857727,0.06892173311961433,0.018940846381875008,0.017153716225247497,0.9972946064024899,0.05263970419764519,-0.024462323635816574,-0.19721829891204834,-0.0023954883217811584,-0.010770052671432495,-0.010854721069335938
2025-09-20T01:56:29Z,0.03563927889063671,0.13933033713448395,0.027912625762488673,-0.08035801351070404,-0.40175750851631165,-0.9122135043144226,0.06934294075013253,0.018745043539654664,0.015160018116041575,0.9973013880565575,0.048013366758823395,-0.029370728880167007,-0.19476988911628723,-0.002190805971622467,-0.00880172848701477,-0.010603129863739014
2025-09-20T01:56:29Z,0.03551662494194482,0.1400977985053721,0.023909907289427244,-0.07939551770687103,-0.402899831533432,-0.9117938876152039,0.06976383646019474,0.018549162248466578,0.013166251823760983,0.9973040245428845,0.0433870330452919,-0.03427913412451744,-0.19232147932052612,-0.0019909217953681946,-0.006837606430053711,-0.010351955890655518
2025-09-20T01:56:29Z,0.03539706928234308,0.14086577497136543,0.019906850566337668,-0.0784282386302948,-0.4040379822254181,-0.9113738536834717,0.07018445872361512,0.018353207827372108,0.011172431887337079,0.9973024589891393,0.038760699331760406,-0.039187539368867874,-0.18987306952476501,-0.0017957985401153564,-0.004877656698226929,-0.010101139545440674
2025-09-20T01:56:29Z,0.035168123950157275,0.14143113491266482,0.01609678771808041,-0.07760842144489288,-0.4049666225910187,-0.9110317826271057,0.070502283420484,0.018107223648403028,0.009269279114732125,0.9973040254786825,0.02882722020149231,-0.03401939198374748,-0.18150201439857483,-0.0010299012064933777,-0.0033006370067596436,-0.011824429035186768
2025-09-20T01:56:29Z,0.035026693724083534,0.14178554199871785,0.012508215583205185,-0.0767645612359047,-0.40567588806152344,-0.9107877016067505,0.07071191825564108,0.017911053332602594,0.007477844968544654,0.9973077723683988,0.01784462481737137,-0.02266319841146469,-0.1762322336435318,0.0015302449464797974,-0.00550764799118042,-0.014208972454071045
2025-09-20T01:56:29Z,0.035121503421988776,0.14184192730047865,0.008853017304959831,-0.07568168640136719,-0.4061182737350464,-0.9106811881065369,0.07077238266003301,0.017829157348427264,0.005658992595090947,0.9973169429335353,0.003670281730592251,-0.012334597297012806,-0.1830337941646576,0.002322278916835785,-0.00964653491973877,-0.01445239782333374
2025-09-20T01:56:29Z,0.035378763550950286,0.1415051009354396,0.005043010086513997,-0.07440147548913956,-0.406216561794281,-0.9107428193092346,0.07063776750256388,0.01782237601766113,0.0037652566630544,0.9973355924861087,-0.015994954854249954,-0.011589540168642998,-0.19292865693569183,0.0010957643389701843,-0.009367197751998901,-0.01136857271194458
2025-09-20T01:56:29Z,0.035650291661378904,0.1407714109688198,0.0010229704837903199,-0.07304339855909348,-0.40597257018089294,-0.9109615087509155,0.0703073346927165,0.01781603368789144,0.0017636713950253747,0.997364598481284,-0.04001609608530998,-0.016144193708896637,-0.20564797520637512,0.0006596148014068604,-0.008809149265289307,-0.009968280792236328
2025-09-20T01:56:29Z,0.035841853341072004,0.13960545374356417,-0.0031616032187575757,-0.0717049166560173,-0.4053485095500946,-0.9113457202911377,0.06976303656181534,0.017766071178802613,-0.0003268523817415949,0.9974052048389609,-0.06153386831283569,-0.02192484214901924,-0.2169957011938095,-0.0007029622793197632,-0.008574247360229492,-0.00788581371307373
2025-09-20T01:56:29Z,0.035731769193825355,0.13800789932744373,-0.007764631249059897,-0.07051824778318405,-0.4043698310852051,-0.911872923374176,0.0690068776267605,0.0175546469277174,-0.0026406848951439177,0.9974581261128604,-0.07035237550735474,-0.036142416298389435,-0.22856725752353668,-0.0017650127410888672,-0.010832816362380981,-0.0060212016105651855
2025-09-20T01:56:29Z,0.03561429962712601,0.13641084836737993,-0.01236681758227415,-0.06933648139238358,-0.4033849239349365,-0.9123995900154114,0.06825030049981412,0.01734312422991475,-0.004954499303656623,0.9975050667550843,-0.07917089015245438,-0.05035999417304993,-0.24013881385326385,-0.0028221532702445984,-0.013097584247589111,-0.004157125949859619
2025-09-20T01:56:29Z,0.03515028236486608,0.13469546160028417,-0.01743865938496107,-0.06833784282207489,-0.40233245491981506,-0.9129394888877869,0.06743677373910517,0.01694704569231504,-0.007515464338840985,0.9975511849124379,-0.08509484678506851,-0.06968410313129425,-0.2644064426422119,-0.0022163987159729004,-0.017229020595550537,-0.005984306335449219
2025-09-20T01:56:29Z,0.03445835722805558,0.13288263791083685,-0.022930853189445974,-0.06742780655622482,-0.4012244939804077,-0.9134945869445801,0.06657532483057285,0.01642809678458855,-0.010294425749951524,0.9975929516408594,-0.08903981745243073,-0.07197162508964539,-0.2864778935909271,-0.00024966150522232056,-0.014568984508514404,-0.00795835256576538
2025-09-20T01:56:29Z,0.033578363077082195,0.13104224437395862,-0.02883211929850138,-0.06657379120588303,-0.4001215100288391,-0.9140408635139465,0.06569972187007056,0.015806914670884135,-0.01328350864189278,0.9976257179840586,-0.08955395221710205,-0.09106822311878204,-0.30429205298423767,-0.0020670518279075623,-0.01074284315109253,-0.004011332988739014
2025-09-20T01:56:29Z,0.03229316664098731,0.12925041796871078,-0.035074331353319076,-0.06599394977092743,-0.3990844488143921,-0.91453617811203,0.06484444018053415,0.01497735237197472,-0.016454835712857305,0.9976472051964126,-0.08615895360708237,-0.11340770125389099,-0.3199622631072998,-0.0033226311206817627,-0.009073317050933838,-0.002594888210296631
2025-09-20T01:56:29Z,0.03067467116533942,0.12756731790371104,-0.04161033965909509,-0.0656362846493721,-0.3981621265411377,-0.9149638414382935,0.06403754812309038,0.013976357551545854,-0.01978156692475763,0.9976533986599823,-0.08501409739255905,-0.1259452998638153,-0.33796426653862,-0.001073405146598816,-0.010841190814971924,-0.00455784797668457
2025-09-20T01:56:29Z,0.028873087941295405,0.12595401090698718,-0.04857817441734103,-0.0653240755200386,-0.3973301947116852,-0.9153477549552917,0.06326018236049703,0.01287484273792853,-0.023327760416560567,0.9976411834922387,-0.07807408273220062,-0.14266568422317505,-0.3568446636199951,-0.000877082347869873,-0.01233816146850586,-0.00421297550201416
2025-09-20T01:56:29Z,0.026814651484798613,0.12443123102016124,-0.056127361041700276,-0.06508252769708633,-0.39661848545074463,-0.915673553943634,0.06252089481929325,0.011631229587423344,-0.027169939160879814,0.9976058560558417,-0.07150997221469879,-0.15531638264656067,-0.3911522626876831,9.845942258834839e-05,-0.016279488801956177,-0.006509244441986084
2025-09-20T01:56:29Z,0.02447088327629324,0.12297410648175301,-0.06419168994592069,-0.06495494395494461,-0.39599499106407166,-0.9159524440765381,0.06180396613632081,0.010233976853030046,-0.03127585667846566,0.9975455669323793,-0.06541185826063156,-0.1722152978181839,-0.4068877100944519,-0.0016340836882591248,-0.009679257869720459,-0.00396120548248291
2025-09-20T01:56:29Z,0.021852795905613478,0.1216692193574249,-0.07236480285405952,-0.06504536420106888,-0.39550116658210754,-0.9161593317985535,0.06114819820483253,0.008699657428296976,-0.035441592291461974,0.9974612346759388,-0.0607345886528492,-0.17784646153450012,-0.40189871191978455,-0.0016506090760231018,-0.002134770154953003,-0.006699264049530029
2025-09-20T01:56:29Z,0.019366061154487302,0.12051387920829938,-0.08044504349065183,-0.06503856182098389,-0.3951174020767212,-0.9163253903388977,0.06055761869253793,0.007236035580348227,-0.039554183397927746,0.9973543275048077,-0.05596369877457619,-0.16989977657794952,-0.3971879482269287,0.000738091766834259,-0.0015633106231689453,-0.013580620288848877
2025-09-20T01:56:29Z,0.01706338681637251,0.11947417366522531,-0.08852323761362879,-0.06486023962497711,-0.3948207497596741,-0.9164658784866333,0.06001775066024497,0.005866502056380093,-0.04365778702928057,0.9972248336115778,-0.05587911605834961,-0.1511152684688568,-0.39810943603515625,0.005948010832071304,-0.002227216958999634,-0.020918726921081543
2025-09-20T01:56:29Z,0.015114318347221283,0.11834431211332969,-0.09643647789803353,-0.06439969688653946,-0.39441004395484924,-0.9166752099990845,0.05943082598007303,0.004684766777899288,-0.04766744017733314,0.9970825951849271,-0.05830049142241478,-0.12547925114631653,-0.3945332169532776,0.01041780412197113,-0.0016798675060272217,-0.02511894702911377
2025-09-20T01:56:29Z,0.013721532431755069,0.11697553262739331,-0.10463997514233914,-0.06334149837493896,-0.39378443360328674,-0.9170178174972534,0.0587312458381573,0.0037827410793146673,-0.05180498508707447,0.9969214430253578,-0.06699016690254211,-0.11385884135961533,-0.41929149627685547,0.008368909358978271,-0.006387621164321899,-0.023095428943634033
2025-09-20T01:56:29Z,0.012237218480548285,0.11522734266010705,-0.11386434919310666,-0.06207074597477913,-0.3928660452365875,-0.9174985289573669,0.0578350164788406,0.0028220965920875756,-0.05645420702431807,0.9967245788879692,-0.08005284518003464,-0.13528837263584137,-0.46268343925476074,0.0024918876588344574,-0.010441064834594727,-0.013521552085876465
2025-09-20T01:56:29Z,0.010737037423334959,0.11349282599067041,-0.12308949200853093,-0.06080970540642738,-0.39193519949913025,-0.9179809093475342,0.056937436641871474,0.0018613871756653216,-0.06110211714643629,0.9965043732221119,-0.09311552345752716,-0.15671789646148682,-0.506075382232666,-0.0033754371106624603,-0.014507025480270386,-0.00394594669342041
2025-09-20T01:56:29Z,0.00863092387604664,0.11136909676843179,-0.13407053436571303,-0.059596966952085495,-0.3907402455806732,-0.9185696840286255,0.05581888529840313,0.0005710096329297927,-0.06664099338844512,0.9962141335489777,-0.10702206939458847,-0.2021157443523407,-0.6035824418067932,-0.008733250200748444,-0.034929364919662476,0.003480076789855957
2025-09-20T01:56:29Z,0.005635537684618859,0.10903442234105389,-0.14755748492998402,-0.05847642198204994,-0.3894752860069275,-0.9191787242889404,0.054549158991404924,-0.0012106335074711062,-0.0734489081655569,0.9958051654589558,-0.11847309023141861,-0.2674463987350464,-0.7362038493156433,-0.016494732350111008,-0.04721790552139282,0.015109777450561523
2025-09-20T01:56:29Z,0.0010712813156499037,0.1065683076191666,-0.16372320527434853,-0.058019720017910004,-0.3881939649581909,-0.9197494983673096,0.05312432866452138,-0.00382190684453717,-0.08162571906575095,0.9952387204799581,-0.1276523470878601,-0.36349132657051086,-0.871571958065033,-0.028463181108236313,-0.04901081323623657,0.026349186897277832
2025-09-20T01:56:29Z,-0.005221780700584945,0.10412617289864569,-0.18261305686509036,-0.058357369154691696,-0.38700419664382935,-0.9202293753623962,0.051584888570956576,-0.007341427562312431,-0.09119117062193907,0.9944692182869941,-0.13590137660503387,-0.45375844836235046,-0.9965794682502747,-0.03190907463431358,-0.046898871660232544,0.021690428256988525
2025-09-20T01:56:29Z,-0.012903092185474705,0.10176779157254123,-0.20382125855642091,-0.059289343655109406,-0.3858972489833832,-0.9206346273422241,0.0499415135267292,-0.011584021921819931,-0.10192697610165805,0.9934698015349467,-0.14675332605838776,-0.5155877470970154,-1.110710620880127,-0.02410145476460457,-0.04157078266143799,0.0071187615394592285
2025-09-20T01:56:29Z,-0.0212019718405335,0.09930799180242716,-0.22716491339517283,-0.0601578913629055,-0.38465216755867004,-0.9210991859436035,0.048111017126760934,-0.01614457847089508,-0.11371512164290422,0.9922163576170155,-0.163187175989151,-0.534805417060852,-1.2078521251678467,-0.01676640659570694,-0.03298559784889221,-0.007784366607666016
2025-09-20T01:56:29Z,-0.029519800247547873,0.09680768180188881,-0.2521567641440105,-0.06055333465337753,-0.38326495885849,-0.9216513633728027,0.04614193318405414,-0.02070855241735589,-0.12629215012284292,0.9907028370069682,-0.15248112380504608,-0.5506088733673096,-1.2768056392669678,-0.01925637573003769,-0.0230637788772583,-0.008472800254821777
2025-09-20T01:56:29Z,-0.03821934673633592,0.09494089756604344,-0.27834040675605093,-0.06093617156147957,-0.3823099434375763,-0.9220227003097534,0.04433747593842031,-0.025483937952716414,-0.13943781913578376,0.9889092829024829,-0.1228829100728035,-0.5616215467453003,-1.3098957538604736,-0.023541361093521118,-0.015300780534744263,-0.009145855903625488
2025-09-20T01:56:29Z,-0.046946569604654834,0.09404008156110628,-0.30489059830010407,-0.0612146221101284,-0.3820531368255615,-0.9221106767654419,0.042884536961875726,-0.030308948834647013,-0.15273633240631415,0.9868706256745828,-0.083220936357975,-0.558371901512146,-1.3190165758132935,-0.022267717868089676,-0.01067650318145752,-0.015599429607391357
2025-09-20T01:56:29Z,-0.055477571744585286,0.0941136722370149,-0.33182491941892,-0.06117396429181099,-0.38249433040618896,-0.9219304919242859,0.04180021848351633,-0.03508978679084558,-0.16619280586032903,0.9845816961467685,-0.0449800007045269,-0.5442749261856079,-1.3460345268249512,-0.01908668875694275,-0.010827183723449707,-0.019614338874816895
2025-09-20T01:56:29Z,-0.06374396822284285,0.09514684157140214,-0.3587457542465119,-0.060865938663482666,-0.38360950350761414,-0.9214874505996704,0.04108976003596802,-0.03980003147587409,-0.17961132701054902,0.9820728333632415,-0.014427639544010162,-0.5290555953979492,-1.334047555923462,-0.01899462193250656,0.005525380373001099,-0.02000415325164795
2025-09-20T01:56:29Z,-0.07170658981059774,0.09681174767291063,-0.38507965504417874,-0.060430124402046204,-0.38509854674339294,-0.9208948612213135,0.040611220611116355,-0.04439504782763552,-0.19270787307421858,0.9794096138262525,0.0034158434718847275,-0.5142807364463806,-1.2927650213241577,-0.019327588379383087,0.02190682291984558,-0.022731661796569824
2025-09-20T01:56:29Z,-0.07942695814981936,0.0989082111489952,-0.41011490586500293,-0.06013865023851395,-0.3867987096309662,-0.9202011227607727,0.040285529105102635,-0.04888168622154244,-0.20513567272936453,0.9766815712874348,0.014871833845973015,-0.49513328075408936,-1.2057586908340454,-0.017070453613996506,0.04040968418121338,-0.023525595664978027
2025-09-20T01:56:29Z,-0.08631993388112329,0.10106314273008946,-0.43236151162211345,-0.05990200862288475,-0.3884233832359314,-0.9195319414138794,0.04004528257261219,-0.052912852641441445,-0.21615616575663377,0.9741011645866262,0.01686115376651287,-0.4597542881965637,-1.1168386936187744,-0.01198488101363182,0.04092070460319519,-0.025639474391937256
2025-09-20T01:56:29Z,-0.0931645964609636,0.1033701174208981,-0.4545976309271131,-0.05962322652339935,-0.39004209637641907,-0.9188646674156189,0.039799279029230285,-0.05693639401379714,-0.22714541404488253,0.9713799412134946,0.018850473687052727,-0.4243752956390381,-1.0279185771942139,-0.006941467523574829,0.04142570495605469,-0.027751505374908447
2025-09-20T01:56:29Z,-0.09947161902767726,0.10564338087935608,-0.47453535877301417,-0.05952804535627365,-0.3915577530860901,-0.9182259440422058,0.03958532822535898,-0.06064958797091167,-0.2369809735402993,0.9688108097954928,0.016315177083015442,-0.40223753452301025,-0.9433682560920715,-0.0043627358973026276,0.04508557915687561,-0.028325676918029785
2025-09-20T01:56:29Z,-0.10533270238511616,0.10761486982504576,-0.4923616045361589,-0.059656113386154175,-0.3927575349807739,-0.9177051186561584,0.03927727473737344,-0.06406944602340868,-0.2457574083892666,0.9664137167315008,-0.0007757637649774551,-0.36255139112472534,-0.8360642194747925,-0.0032858550548553467,0.05367952585220337,-0.033709824085235596
2025-09-20T01:56:29Z,-0.11059006723555723,0.10920165136247686,-0.5079942586601246,-0.05988960340619087,-0.39360225200653076,-0.9173279404640198,0.0388755364498843,-0.06710599319055913,-0.25343627261061286,0.9642382294747189,-0.008211617358028889,-0.33104488253593445,-0.7261243462562561,-0.003554847091436386,0.05345764756202698,-0.03186219930648804
2025-09-20T01:56:29Z,-0.11547882354555856,0.11052553358740777,-0.5214982200098163,-0.06041891127824783,-0.394231379032135,-0.9170230031013489,0.03842412459142638,-0.06988755902509082,-0.2600616131139877,0.962292584156851,-0.007781486492604017,-0.3103956878185272,-0.6228637099266052,-0.001997731626033783,0.049098581075668335,-0.026008546352386475
2025-09-20T01:56:29Z,-0.12019260412472658,0.111542265707124,-0.5331972812230883,-0.061328303068876266,-0.39461398124694824,-0.9167980551719666,0.03787757555754426,-0.07250716665574831,-0.2657969312792246,0.9605518333543424,-0.004988564178347588,-0.2827242910861969,-0.5386435389518738,0.001677192747592926,0.03917011618614197,-0.027107536792755127
2025-09-20T01:56:29Z,-0.12434307829218193,0.11239184879700917,-0.5432326703097009,-0.062212757766246796,-0.39488986134529114,-0.9166196584701538,0.03735979798957076,-0.07479887536670186,-0.2707095983308918,0.959023256200003,0.003011271357536316,-0.24541175365447998,-0.45953020453453064,0.003341134637594223,0.03415513038635254,-0.028828322887420654
2025-09-20T01:56:29Z,-0.12801743964115833,0.11310576830128723,-0.5518269398618464,-0.06308494508266449,-0.39509037137031555,-0.9164736270904541,0.036875622938321216,-0.07681399739969862,-0.27491218896600034,0.9576862680874527,0.012460676953196526,-0.21749237179756165,-0.40405672788619995,0.002392467111349106,0.023881882429122925,-0.026997864246368408
2025-09-20T01:56:30Z,-0.13137093546528014,0.11382920149983423,-0.5593008240059749,-0.06398636847734451,-0.3953414261341095,-0.9163028597831726,0.03646803758058518,-0.07865339277156716,-0.27856717841512907,0.9564956345919127,0.022062230855226517,-0.20568686723709106,-0.3554384708404541,0.0017129629850387573,0.02120879292488098,-0.02001357078552246
2025-09-20T01:56:30Z,-0.13441929507867312,0.11449786928576194,-0.5660675083155384,-0.06481551378965378,-0.395567387342453,-0.9161470532417297,0.03609230276103678,-0.0803244332353871,-0.28187278013164574,0.9554020112780279,0.02049417980015278,-0.1901678889989853,-0.31508657336235046,0.0025077424943447113,0.020656436681747437,-0.02150505781173706
2025-09-20T01:56:30Z,-0.13704289259834365,0.11499362531979349,-0.57213938118523,-0.06546493619680405,-0.3956632912158966,-0.9160594344139099,0.035711812908721226,-0.08175447132305518,-0.2848310572373904,0.9544171138810593,0.012824304401874542,-0.15139584243297577,-0.27957895398139954,0.004858806729316711,0.017337888479232788,-0.0279693603515625
