timestamp,attitude_roll,attitude_pitch,attitude_yaw,gravity_x,gravity_y,gravity_z,quaternion_x,quaternion_y,quaternion_z,quaternion_w,rotation_rate_x,rotation_rate_y,rotation_rate_z,user_acceleration_x,user_acceleration_y,user_acceleration_z
2025-09-16T01:57:50Z,-0.15385832640105487,0.3251044811619177,-0.2752893161386837,-0.14522428810596466,-0.3194078505039215,-0.9364232420921326,0.14942647319231778,-0.09726297852144117,-0.14732128675158013,0.972886447940937,-0.00330053037032485,-0.007695361971855164,0.004611421376466751,0.0009674429893493652,0.0002607405185699463,-0.00011992454528808594
2025-09-16T01:57:50Z,-0.154012699958239,0.3250414453129935,-0.27518874688699957,-0.1453719288110733,-0.31934812664985657,-0.936420738697052,0.14938922156984757,-0.09732669037692322,-0.1472822219606854,0.9728917380368698,-0.003261423436924815,-0.006847710814327002,0.005865365732461214,0.0011216998100280762,0.00029218196868896484,-0.00035125017166137695
2025-09-16T01:57:50Z,-0.154149724612682,0.3250072812433078,-0.2750536810154184,-0.14550191164016724,-0.31931573152542114,-0.9364116191864014,0.14936902750431102,-0.09738116075352304,-0.14722584306025496,0.972897942096499,0.0002786812838166952,-0.005168756004422903,0.009275811724364758,0.001003369688987732,-4.89652156829834e-05,-6.181001663208008e-05
2025-09-16T01:57:50Z,-0.15427798138652235,0.32500948966931353,-0.27482126615000413,-0.1456219106912613,-0.31931784749031067,-0.9363921880722046,0.1493720005274166,-0.09742634451650098,-0.1471224410596925,0.9729084917213572,0.00012356587103568017,-0.006383697502315044,0.009779741987586021,0.0004951506853103638,0.0003726482391357422,0.0003635287284851074
2025-09-16T01:57:50Z,-0.15436448287145704,0.32496552294184233,-0.27469248389949147,-0.14570505917072296,-0.3192761540412903,-0.9363934993743896,0.14935044903280867,-0.0974561146438045,-0.14706508190229572,0.9729174983271799,0.00018573753186501563,-0.005067483521997929,0.007144923321902752,0.00018656253814697266,-9.834766387939453e-05,0.0007172226905822754
2025-09-16T01:57:50Z,-0.15445097863249058,0.3249215488388561,-0.27456371027133986,-0.14578822255134583,-0.3192344903945923,-0.9363947510719299,0.14932889753820075,-0.09748588477110805,-0.14700772274489893,0.9729265049330025,0.0002479091926943511,-0.003751269308850169,0.004510104190558195,-0.0001220405101776123,-0.0005693733692169189,0.0010709762573242188
2025-09-16T01:57:50Z,-0.15453749676455922,0.3248776025481585,-0.2744349403323054,-0.1458713859319687,-0.3191928565502167,-0.9363960027694702,0.14930736092762242,-0.09751566981668307,-0.1469503635875021,0.9729355115388253,0.00031008085352368653,-0.0024350550957024097,0.0018752850592136383,-0.0004305839538574219,-0.001040339469909668,0.0014246702194213867
2025-09-16T01:57:50Z,-0.15462399358958592,0.324833646586259,-0.2743061812670751,-0.14595454931259155,-0.3191511929035187,-0.9363972544670105,0.14928582432560453,-0.09754544741168282,-0.14689300443010528,0.9729445181446482,0.000372252514353022,-0.0011188406497240067,-0.0007595343049615622,-0.0007391870021820068,-0.0015113353729248047,0.00177842378616333
2025-09-16T01:57:50Z,-0.1547448209737175,0.3248083417679123,-0.27426057424241035,-0.14606893062591553,-0.3191272020339966,-0.9363875985145569,0.14926682308824088,-0.09759927840891472,-0.1468791607812827,0.9729441168177709,0.0020396304316818714,-0.006107787601649761,-0.001357437577098608,-0.0020618587732315063,0.0003517270088195801,0.002445220947265625
2025-09-16T01:57:50Z,-0.15485958027059654,0.32481782348547183,-0.2742322925353116,-0.14617592096328735,-0.31913620233535767,-0.9363678097724915,0.1492644063178171,-0.09765357549636432,-0.14687422350060758,0.9729397713489905,0.0015484013129025698,-0.003669018391519785,0.0003793820505961776,-0.001818925142288208,-0.00036773085594177246,-0.0014798641204833984
2025-09-16T01:57:50Z,-0.1548267950743967,0.32490512633318747,-0.27423036634742265,-0.1461409330368042,-0.3192189335823059,-0.936345100402832,0.1493095245303796,-0.0976428090861521,-0.14687317391435986,0.9729341101106488,0.004973812960088253,0.012863384559750557,-0.003906950820237398,0.0019554346799850464,-0.00314486026763916,-0.008485794067382812
2025-09-16T01:57:50Z,-0.15430485263565846,0.32506160480046653,-0.27435877330778513,-0.14564451575279236,-0.3193672299385071,-0.9363718628883362,0.1494179916531561,-0.09740805401604555,-0.14690084843529805,0.9729367605244676,0.005529975984245539,0.03109055943787098,-0.013656387105584145,0.002702474594116211,-0.002378493547439575,-0.006087601184844971
2025-09-16T01:57:50Z,-0.15357318525156652,0.325146400185863,-0.27460630622306736,-0.14495521783828735,-0.3194475769996643,-0.9364513754844666,0.14950110469749822,-0.09707580126089721,-0.14696883926675927,0.9729469344100762,-7.69738107919693e-07,0.03326495736837387,-0.01601160131394863,0.0005589127540588379,0.00210610032081604,-2.9027462005615234e-05
2025-09-16T01:57:50Z,-0.1529274488120094,0.3250587703934963,-0.2749031995979188,-0.14435474574565887,-0.3193645477294922,-0.9365724921226501,0.1494914029099466,-0.09677848941710727,-0.14706269140093536,0.9729638735147247,-0.008601609617471695,0.01787342131137848,-0.012339041568338871,-1.5094876289367676e-05,0.0034854114055633545,0.003033459186553955
2025-09-16T01:57:50Z,-0.15258984791157856,0.32487541014592086,-0.27518463749508204,-0.14404745399951935,-0.31919077038764954,-0.9366790056228638,0.1494131108150699,-0.09662403079015941,-0.14716956063313982,0.9729751352182585,-0.008778722025454044,0.0034633558243513107,-0.011455327272415161,0.0006942152976989746,0.0020801424980163574,0.005387425422668457
2025-09-16T01:57:50Z,-0.15251221353593344,0.3247690810270155,-0.27546170322119046,-0.14397989213466644,-0.31909000873565674,-0.9367237687110901,0.1493535332550773,-0.09660042594036224,-0.14729576481783868,0.9729675396279992,-0.004779049661010504,-0.004866335541009903,-0.01114819198846817,0.000580132007598877,0.0007870197296142578,0.003947257995605469
2025-09-16T01:57:50Z,-0.15261846576242466,0.32476540512944146,-0.27566412655373196,-0.14407959580421448,-0.3190865218639374,-0.9367095828056335,0.14933412994064316,-0.09666700442796079,-0.14740207689628254,0.9729478075388966,0.002313186414539814,-0.009372269734740257,-0.009337032213807106,0.00031194090843200684,0.0007306933403015137,0.0020693540573120117
2025-09-16T01:57:50Z,-0.15284546555786696,0.32485284352617155,-0.27580776839385207,-0.14428797364234924,-0.31916937232017517,-0.9366492629051208,0.14935313256233615,-0.09679353719745507,-0.14749119726422577,0.9729187968728534,0.003792897332459688,-0.010779256001114845,-0.005607767961919308,0.000690460205078125,0.0013824105262756348,-0.0002970695495605469
2025-09-16T01:57:50Z,-0.153008068193539,0.3249880761813972,-0.2758801304671894,-0.14443369209766388,-0.31929755210876465,-0.9365831613540649,0.14940364519298532,-0.09688635501999879,-0.14754208621112117,0.9728941216706891,0.005567180924117565,-0.007551172282546759,-0.003223093692213297,0.0010389089584350586,0.0020196735858917236,-0.0017005205154418945
2025-09-16T01:57:50Z,-0.15314035159832476,0.325065727458765,-0.27590177460145493,-0.14455381035804749,-0.31937113404273987,-0.9365395307540894,0.14943074364424472,-0.09695709965876914,-0.1475645403670314,0.9728794927252654,0.002344970591366291,-0.003180653788149357,-0.0013576098717749119,0.0013070553541183472,0.002249091863632202,-0.003081679344177246
2025-09-16T01:57:50Z,-0.1531485978076141,0.325056215852985,-0.27592476704728647,-0.1445619910955429,-0.3193621039390564,-0.9365413188934326,0.14942437493765318,-0.09696224069575804,-0.14757608732047653,0.9728782277598483,0.0008432007161900401,-0.00393633171916008,-0.0008620464359410107,0.0004717707633972168,0.0007403790950775146,-0.0012016892433166504
2025-09-16T01:57:50Z,-0.15315680463270892,0.3250466646385693,-0.27594772585854943,-0.14457014203071594,-0.3193530738353729,-0.9365431666374207,0.14941800623962326,-0.09696737428217202,-0.14758763413695422,0.9728768435852266,-0.0006585692754015326,-0.004692009184509516,-0.00036648300010710955,-0.00036354362964630127,-0.0007683336734771729,0.0006783604621887207
2025-09-16T01:57:50Z,-0.15319292427843384,0.325040726230847,-0.2759948357291821,-0.14460425078868866,-0.31934744119644165,-0.9365398287773132,0.14941015931176727,-0.09698810024492571,-0.1476130947927976,0.9728721055619625,0.004514885600656271,-0.0010306439362466335,-0.005143583286553621,0.00107593834400177,-0.004108995199203491,-0.00014853477478027344
2025-09-16T01:57:50Z,-0.15309772170926636,0.32515269764197413,-0.2761748490777809,-0.14450964331626892,-0.31945353746414185,-0.9365182518959045,0.14946311810013632,-0.09696213619992586,-0.14769649061491522,0.9728538899203196,0.008057857863605022,0.0025915601290762424,-0.011104198172688484,0.0019112974405288696,-0.003055959939956665,-0.0005834698677062988
2025-09-16T01:57:50Z,-0.152979936395316,0.32531236874435593,-0.27644827006724704,-0.14439155161380768,-0.3196048438549042,-0.9364848136901855,0.14953650759856477,-0.0969351227453561,-0.14782487661193963,0.9728257878142794,0.007976760156452656,0.0029463479295372963,-0.013790641911327839,0.0014647990465164185,-0.000658869743347168,0.0006381869316101074
2025-09-16T01:57:50Z,-0.15289326795613112,0.32546222569305305,-0.2767139132078746,-0.144303098320961,-0.31974682211875916,-0.9364500045776367,0.1496031904209654,-0.09692207888268192,-0.14795153393837732,0.9727975684850432,0.0035432670265436172,-0.002204864751547575,-0.013703729957342148,0.0012774020433425903,0.0003471970558166504,0.0011509060859680176
2025-09-16T01:57:50Z,-0.1528735607879489,0.32557874398690084,-0.2770322129489907,-0.14427897334098816,-0.31985723972320557,-0.93641597032547,0.14964609607552345,-0.09694350391017013,-0.14810792903006864,0.9727650234509393,0.002059957478195429,-0.0036428915336728096,-0.014458820223808289,0.0015980154275894165,-0.00020954012870788574,0.0006628632545471191
2025-09-16T01:57:50Z,-0.1527852870208919,0.32566253180376714,-0.2773439382516952,-0.14419223368167877,-0.3199366331100464,-0.9364022612571716,0.14967841839412144,-0.09692907201268096,-0.14825512281273015,0.9727391051082015,0.000639626057818532,-0.002287085633724928,-0.013368186540901661,0.0023197680711746216,-0.0010606646537780762,-0.0006411075592041016
2025-09-16T01:57:50Z,-0.15262757399995583,0.3257623177479902,-0.27770000219776886,-0.14403969049453735,-0.32003116607666016,-0.9363934397697449,0.14972156299376743,-0.09688519293628564,-0.14841909378458243,0.9727118561860515,0.0015712871681898832,0.0028552664443850517,-0.012905611656606197,0.0020896941423416138,-0.0012393593788146973,-0.0012775659561157227
2025-09-16T01:57:50Z,-0.1524916291467747,0.32588891483604887,-0.2779626173811368,-0.14390623569488525,-0.32015109062194824,-0.9363729357719421,0.14978072029522296,-0.09684658492003863,-0.1485399299661437,0.9726881735007143,0.004403349012136459,0.002492771949619055,-0.010582338087260723,0.0007401406764984131,-0.001320183277130127,-0.001328587532043457
2025-09-16T01:57:50Z,-0.15235528495152723,0.3260794036366567,-0.2781868834496615,-0.143769308924675,-0.32033154368400574,-0.9363322854042053,0.14987295714083543,-0.0968088940799985,-0.14864373111944143,0.9726618877824337,0.008784081786870956,0.0012739262310788035,-0.009067274630069733,0.0011862963438034058,-0.001268535852432251,2.372264862060547e-05
2025-09-16T01:57:50Z,-0.15227113937361672,0.32629212346779657,-0.27836711312766876,-0.14368018507957458,-0.32053306698799133,-0.9362769722938538,0.14997430141776144,-0.09679469049761935,-0.14873058829469538,0.9726344294387769,0.00628332095220685,-0.0003396043321117759,-0.006597230676561594,0.0006274133920669556,0.0002747178077697754,0.0008057951927185059
2025-09-16T01:57:50Z,-0.152185600603791,0.3264633588688015,-0.2784904474605944,-0.1435917615890503,-0.32069525122642517,-0.9362350106239319,0.15005826464672664,-0.09677298655722968,-0.1487885908442453,0.9726147528564683,0.004352933261543512,-0.003266085870563984,-0.004774346016347408,0.0006063133478164673,-0.0004259347915649414,0.0008237361907958984
2025-09-16T01:57:50Z,-0.15224696397962775,0.32655361346025197,-0.2785706404322695,-0.14364482462406158,-0.3207807242870331,-0.9361975789070129,0.15009386060264318,-0.09681445270952568,-0.14883452695376204,0.9725981299765648,0.0005251888651400805,-0.00602773018181324,-0.0035850554704666138,0.00019663572311401367,0.00026476383209228516,0.0015372633934020996
2025-09-16T01:57:50Z,-0.15232657438525,0.32656182989840105,-0.2786601394740693,-0.14371895790100098,-0.32078853249549866,-0.936183512210846,0.15008762381558727,-0.09686040820371225,-0.1488842540503954,0.972586807557149,-0.0026479146908968687,-0.008351752534508705,-0.003273616312071681,2.5957822799682617e-05,0.0005523264408111572,0.0018344521522521973
2025-09-16T01:57:50Z,-0.15254014373877836,0.3264501922699475,-0.2786586481862217,-0.14392434060573578,-0.3206827938556671,-0.9361882209777832,0.1500173131835571,-0.09695720737737702,-0.14889665105317382,0.9725861376615347,-0.0037471968680620193,-0.009953689761459827,0.0009470393415540457,5.842745304107666e-05,0.0006027817726135254,0.0014094114303588867
2025-09-16T01:57:50Z,-0.15275368186014993,0.3263385429172346,-0.2786571746336127,-0.1441296935081482,-0.3205770254135132,-0.9361928105354309,0.14994700256008794,-0.09705399910046669,-0.1489090479874685,0.9725854081613184,-0.004846479278057814,-0.01155562698841095,0.005167694762349129,9.086728096008301e-05,0.0006532371044158936,0.0009843111038208008
2025-09-16T01:57:50Z,-0.15301009520234676,0.32622576089766714,-0.27857116043965147,-0.1443752497434616,-0.3204701840877533,-0.9361915588378906,0.1498770478752729,-0.09716523046608014,-0.14888349662201322,0.9725890137995353,-0.005169808864593506,-0.011414478532969952,0.00771976076066494,3.771483898162842e-05,0.0002709329128265381,0.0004082918167114258
2025-09-16T01:57:50Z,-0.1532198168722732,0.3260916086737091,-0.2784590090953374,-0.14457814395427704,-0.32034310698509216,-0.9362037777900696,0.14980141590014745,-0.09725047511821601,-0.14884115857698293,0.9725986587977324,-0.005106057971715927,-0.008009277284145355,0.007003800943493843,0.0004844963550567627,-0.0004699826240539551,-0.00013941526412963867
2025-09-16T01:57:50Z,-0.15341027333000928,0.32594851415476345,-0.27833595995480126,-0.14476345479488373,-0.3202075660228729,-0.9362214803695679,0.14972339715829677,-0.09732499563598776,-0.14879183470027574,0.9726107556142815,-0.006465465761721134,-0.004426180385053158,0.004746325314044952,0.00020062923431396484,-0.0001945793628692627,-5.7697296142578125e-05
2025-09-16T01:57:50Z,-0.15348699858602816,0.3258108877752602,-0.2782649438935048,-0.1448420137166977,-0.32007718086242676,-0.9362539052963257,0.14965397546621628,-0.09734844482014206,-0.14875942506811665,0.9726240846951341,-0.004772004671394825,-0.0045455447398126125,0.0017768829129636288,8.302927017211914e-05,-8.046627044677734e-05,-2.384185791015625e-05
2025-09-16T01:57:50Z,-0.15358277081834348,0.325671511051691,-0.27829127795545466,-0.14493851363658905,-0.3199451267719269,-0.9362841248512268,0.14957754623293804,-0.0973883368452749,-0.14877573302124175,0.9726293707738136,-0.005790481343865395,-0.006582476198673248,-0.00043781381100416183,-8.849799633026123e-05,6.705522537231445e-06,0.0007899999618530273
2025-09-16T01:57:50Z,-0.1537509885160269,0.32555228705384986,-0.2783488801747903,-0.14510184526443481,-0.3198321759700775,-0.9362974166870117,0.14950405261261407,-0.0974670646931476,-0.14881320667452513,0.9726269435301108,-0.004085902590304613,-0.00983978807926178,-0.004191948100924492,0.0002997368574142456,-0.0013900399208068848,-0.0007845163345336914
2025-09-16T01:57:50Z,-0.1539006899190934,0.32559438181592104,-0.2784699879483894,-0.1452399492263794,-0.31987205147743225,-0.9362623691558838,0.14950754674838992,-0.09755152854133964,-0.14888439653557997,0.9726070729815278,-0.001848242711275816,-0.00834691897034645,-0.002070692367851734,-0.0002606213092803955,-0.00026339292526245117,-0.0012506842613220215
2025-09-16T01:57:50Z,-0.1540503815442491,0.32563651097597296,-0.27859104759637454,-0.1453780233860016,-0.3199119567871094,-0.9362273216247559,0.1495110557853169,-0.09763599240665265,-0.14895557142700053,0.9725871428454638,0.00038941693492233753,-0.006854049861431122,5.056336522102356e-05,-0.0008209943771362305,0.0008632838726043701,-0.0017168521881103516
2025-09-16T01:57:50Z,-0.1542000615574498,0.3256786328964919,-0.27871211225826065,-0.14551609754562378,-0.3199518620967865,-0.9361922144889832,0.14951454992965382,-0.09772044880426943,-0.1490267463184211,0.9725672127093994,0.0026270768139511347,-0.005361180752515793,0.0021718190982937813,-0.0013813972473144531,0.0019899606704711914,-0.0021830201148986816
2025-09-16T01:57:50Z,-0.15421887220151598,0.32575104048903375,-0.2787247831882176,-0.14553014934062958,-0.320020467042923,-0.9361665844917297,0.1495478670763183,-0.09773504552800659,-0.14903622910597816,0.9725591551824346,0.004595521837472916,0.004333555698394775,0.0002836232306435704,0.001999214291572571,-0.0013166069984436035,-0.005748927593231201
2025-09-16T01:57:50Z,-0.15386405094352457,0.3258884228690369,-0.278777930491805,-0.1451912224292755,-0.32015061378479004,-0.9361746907234192,0.1496387543698205,-0.09757501452882583,-0.14903915165085954,0.9725608207559603,0.007365871220827103,0.02568461373448372,-0.006826093886047602,0.0038735270500183105,-0.0024119913578033447,-0.0059206485748291016
2025-09-16T01:57:51Z,-0.1535589788911654,0.3258029228316903,-0.27893492886873267,-0.1449097990989685,-0.32006964087486267,-0.9362459778785706,0.14961211023384768,-0.09743308752264142,-0.14909042373164547,0.9725713118738171,0.006133864168077707,0.018851323053240776,-0.006238880101591349,0.0031963586807250977,-0.0017341375350952148,-0.004401087760925293
2025-09-16T01:57:51Z,-0.15325393944252108,0.3257173493092535,-0.2790919207843909,-0.1446283757686615,-0.31998854875564575,-0.9363172054290771,0.14958545118816438,-0.09729116794991169,-0.14914171064509804,0.9725817433699507,0.004901857115328312,0.012018032371997833,-0.005651666317135096,0.0025192052125930786,-0.0010563135147094727,-0.0028817057609558105
2025-09-16T01:57:51Z,-0.15294889942463563,0.32563174169884024,-0.27924889884777954,-0.1443469375371933,-0.31990745663642883,-0.936388373374939,0.14955879215960205,-0.0971492334760314,-0.14919299755855084,0.9725921748660843,0.0036698500625789165,0.005184742622077465,-0.0050644525326788425,0.001842007040977478,-0.00037857890129089355,-0.0013623237609863281
2025-09-16T01:57:51Z,-0.15264388370768275,0.32554609623575587,-0.27940579681652333,-0.1440654844045639,-0.31982630491256714,-0.9364594221115112,0.14953213313960023,-0.09700729155157556,-0.1492442546697026,0.9726026063964598,0.002437843009829521,-0.0016485475935041904,-0.004477239213883877,0.0011648237705230713,0.00029915571212768555,0.0001569986343383789
2025-09-16T01:57:51Z,-0.15233888186924974,0.32546040557754924,-0.27956269019980995,-0.14378401637077332,-0.31974512338638306,-0.9365304112434387,0.149505474119599,-0.09686534962712005,-0.14929552661352113,0.972612978305112,0.0012058360734954476,-0.008481837809085846,-0.0038900254294276237,0.0004875659942626953,0.0009767413139343262,0.0016760826110839844
2025-09-16T01:57:51Z,-0.15240683497284097,0.32540969660468794,-0.2795797040888312,-0.14385011792182922,-0.3196970522403717,-0.9365366697311401,0.14947483132221934,-0.09689650256892576,-0.14930756646883056,0.9726127260527896,0.0011745634255930781,-0.010585189796984196,0.0021768538281321526,0.0007160604000091553,0.001948237419128418,0.0006873607635498047
2025-09-16T01:57:51Z,-0.15258453234643873,0.32542869729507395,-0.2795020653015838,-0.1440156102180481,-0.31971505284309387,-0.9365050792694092,0.14947460322659883,-0.09697830228054546,-0.14928358538053155,0.9726082832554706,-0.0005976518150418997,-0.008278178051114082,0.006713214796036482,0.0005163252353668213,0.0024457573890686035,-0.0014219880104064941
2025-09-16T01:57:51Z,-0.15269889369139786,0.3253919462753241,-0.27927201170603705,-0.14412449300289154,-0.31968024373054504,-0.9365002512931824,0.1494592880206437,-0.09701442747118416,-0.14917929417331172,0.9726230658341352,-0.0011539643164724112,-0.004946131259202957,0.009287367574870586,9.754300117492676e-05,0.0013427436351776123,-0.002219080924987793
2025-09-16T01:57:51Z,-0.15281323987219625,0.3253551294383025,-0.27904195491243455,-0.14423337578773499,-0.31964534521102905,-0.9364953637123108,0.14944395791353865,-0.0970505526447021,-0.1490750028976081,0.9726377888081975,-0.0017102769343182445,-0.001614084467291832,0.011861520819365978,-0.0003212541341781616,0.0002397000789642334,-0.003016173839569092
2025-09-16T01:57:51Z,-0.15284278323336864,0.3252854134856094,-0.27873724417274526,-0.14426442980766296,-0.3195793032646179,-0.9365131258964539,0.14942251486967761,-0.09703780985705139,-0.1489271996747129,0.9726650191541604,-0.0005358239868655801,-0.002450024476274848,0.014894610270857811,-0.0008969604969024658,-0.0013743042945861816,0.00038486719131469727
2025-09-16T01:57:51Z,-0.1530014876894776,0.32524258220513896,-0.27842227550107557,-0.14441514015197754,-0.3195387125015259,-0.9365037679672241,0.14940508152343698,-0.09708879653092592,-0.14878475189404225,0.9726844351339401,0.0034622191451489925,0.0020831150468438864,0.012280731461942196,0.000799909234046936,-0.0031050145626068115,-0.0007816553115844727
2025-09-16T01:57:51Z,-0.1530004237222995,0.3252998168836369,-0.2782526071216517,-0.1444113552570343,-0.3195929527282715,-0.9364858269691467,0.14944133224179676,-0.09707915987095936,-0.1487036537662289,0.9726922173172016,0.004030410200357437,0.0028550480492413044,0.008956147357821465,0.0006291717290878296,-0.0011781752109527588,0.00027233362197875977
2025-09-16T01:57:51Z,-0.15299937572303793,0.32535702655796966,-0.27808294055651817,-0.14440758526325226,-0.3196471631526947,-0.9364678859710693,0.14947756805900597,-0.09706952319387184,-0.14862255563841548,0.9726999995004627,0.004598601255565882,0.003626981284469366,0.005631562788039446,0.000458449125289917,0.0007486045360565186,0.0013263821601867676
2025-09-16T01:57:51Z,-0.1529584438334486,0.325423961345477,-0.2780042619074911,-0.14436599612236023,-0.3197105824947357,-0.9364526867866516,0.14951709592017318,-0.09704788740704313,-0.1485829805798288,0.9727021311350604,0.0028841644525527954,0.002274780999869108,0.0035320206079632044,0.001310303807258606,0.00012803077697753906,0.0010059475898742676
2025-09-16T01:57:51Z,-0.15291751773547307,0.32549090161520894,-0.2779255864585453,-0.1443244069814682,-0.31977400183677673,-0.9364374279975891,0.14955662378134035,-0.09702625162021442,-0.14854340552124212,0.9727042627696582,0.0011697278823703527,0.0009225808316841722,0.0014324784278869629,0.002162158489227295,-0.0004924535751342773,0.0006855130195617676
2025-09-16T01:57:51Z,-0.15282583611154704,0.32555057956437866,-0.27790349368001455,-0.14423565566539764,-0.3198305368423462,-0.9364318251609802,0.14959362756637493,-0.09698370659171877,-0.14852735814685428,0.9727052944873662,4.1474238969385624e-05,0.0031152539886534214,0.0012093177065253258,0.002348482608795166,0.0001761317253112793,-0.0003470778465270996
2025-09-16T01:57:51Z,-0.15273349070841402,0.3256045005227639,-0.27783726406318926,-0.14414654672145844,-0.3198816478252411,-0.9364280700683594,0.1496300249584397,-0.09693719715499925,-0.1484896635782673,0.9727099869625108,0.0015995067078620195,0.007661070208996534,0.003743717446923256,0.0020720362663269043,0.0009984076023101807,-0.0012635588645935059
2025-09-16T01:57:51Z,-0.15257045095184812,0.3256432271286641,-0.277663981536961,-0.14399199187755585,-0.31991833448410034,-0.9364392757415771,0.1496694225917394,-0.09684733621011342,-0.14839419693532643,0.9727274416128068,0.003404931165277958,0.007254824507981539,0.00677122687920928,0.0021444708108901978,0.000886768102645874,-0.0006748437881469727
2025-09-16T01:57:51Z,-0.15240741596612897,0.3256820545708571,-0.2774907137246734,-0.14383743703365326,-0.31995511054992676,-0.9364504814147949,0.14970885002734025,-0.09675747529946944,-0.14829873029238566,0.9727448962631031,0.00521035585552454,0.0068485792726278305,0.009798736311495304,0.002216905355453491,0.0007751882076263428,-8.612871170043945e-05
2025-09-16T01:57:51Z,-0.1523384822469415,0.3257483217952719,-0.2772484912452187,-0.14376966655254364,-0.32001790404319763,-0.9364394545555115,0.14975801892972973,-0.0967099151022896,-0.1481774825356267,0.9727605327901806,0.006509679369628429,0.004757814109325409,0.011206381022930145,0.0019855499267578125,-5.1140785217285156e-05,0.00015085935592651367
2025-09-16T01:57:51Z,-0.15235167747039685,0.32587496134815086,-0.27695041240851037,-0.14377586543560028,-0.3201378881931305,-0.9363974928855896,0.14983326422145582,-0.09670183571401286,-0.1480367830244721,0.9727711848738738,0.007218551822006702,0.0012444420717656612,0.012771163135766983,0.0014823377132415771,0.0006195306777954102,0.0009682774543762207
2025-09-16T01:57:51Z,-0.1524295204636231,0.3259441138648067,-0.2766478127463641,-0.14384539425373077,-0.32020339369773865,-0.9363644123077393,0.1498758890146188,-0.0967212934613374,-0.14789723329847215,0.9727839218001044,0.005754750221967697,-0.0021962097380310297,0.012399683706462383,0.0011432915925979614,6.73532485961914e-05,0.0004830360412597656
2025-09-16T01:57:51Z,-0.15256711557125066,0.3259879778555358,-0.27638198316021595,-0.14397209882736206,-0.3202449381351471,-0.9363307356834412,0.14989998669873453,-0.09677100164913423,-0.147779390576411,0.9727931767141204,0.003549640765413642,-0.004784038290381432,0.012061874382197857,0.000528290867805481,0.0004388391971588135,0.0006022453308105469
2025-09-16T01:57:51Z,-0.1527825759008084,0.32601689427353775,-0.276102127488676,-0.14417243003845215,-0.3202723264694214,-0.9362905025482178,0.14991173477105907,-0.09685660746784558,-0.147660175236021,0.9728009430882026,0.00386892631649971,-0.007096672430634499,0.009665640071034431,1.9252300262451172e-05,-0.00019469857215881348,0.0006492137908935547
2025-09-16T01:57:51Z,-0.15297594904127707,0.32604450767244525,-0.2758451160936536,-0.14435213804244995,-0.3202984929084778,-0.9362539052963257,0.14992338901331817,-0.09693309366266814,-0.14755037687499395,0.9728082218050053,0.0036103816237300634,-0.008772684261202812,0.009515658020973206,-0.00018590688705444336,-0.0004500448703765869,0.0006681680679321289
2025-09-16T01:57:51Z,-0.15318403301391184,0.3261235754551417,-0.27563711821506154,-0.14454308152198792,-0.32037338614463806,-0.9361987709999084,0.14995672327989568,-0.09702357461449373,-0.1474668838786549,0.9728067084099649,0.003709252690896392,-0.006019541062414646,0.007638496346771717,-0.00088462233543396,-0.0007825493812561035,0.00017333030700683594
2025-09-16T01:57:51Z,-0.1533982343440713,0.32622330347407624,-0.2754486799424477,-0.14473873376846313,-0.32046785950660706,-0.9361362457275391,0.149998753286755,-0.09711975035399237,-0.14739390712251696,0.9728017258607176,0.007040069904178381,-0.0060146767646074295,0.0074461945332586765,-0.001096382737159729,-0.000502467155456543,0.00038439035415649414
2025-09-16T01:57:51Z,-0.15353902132935707,0.3263641638256173,-0.2752780907741875,-0.14486362040042877,-0.32060128450393677,-0.9360712170600891,0.15006542172341067,-0.09718407334860933,-0.14732520549032824,0.9727954270966498,0.007478912826627493,-0.0022160408552736044,0.0053629279136657715,-0.001604422926902771,-0.0002478957176208496,-0.00044292211532592773
2025-09-16T01:57:51Z,-0.15341845623498834,0.32648725947818463,-0.27530525805026695,-0.14474472403526306,-0.3207179009914398,-0.9360496997833252,0.15013306979006022,-0.09713502191592092,-0.1473326185938073,0.9727887428554745,0.005142321344465017,0.0020705198403447866,-0.000531571451574564,-0.0016125887632369995,-0.001422792673110962,-0.00013744831085205078
2025-09-16T01:57:51Z,-0.1532978848707035,0.3266103568163532,-0.27533244619290703,-0.14462584257125854,-0.3208344876766205,-0.9360281229019165,0.1502007178567098,-0.09708597048323253,-0.14734003169728643,0.972782058614299,0.002805729629471898,0.006357080303132534,-0.006426071282476187,-0.0016207844018936157,-0.0025976598262786865,0.00016796588897705078
2025-09-16T01:57:51Z,-0.15317731033217255,0.32673342522651033,-0.2753596555782751,-0.14450694620609283,-0.32095104455947876,-0.936006486415863,0.15026835102220876,-0.09703691903342321,-0.1473474448007655,0.9727753743731233,0.00046913791447877884,0.010643640533089638,-0.012320570647716522,-0.001628965139389038,-0.0037725865840911865,0.00047326087951660156
2025-09-16T01:57:51Z,-0.15295954979730814,0.3268001143644633,-0.2756322209859035,-0.14429986476898193,-0.3210141956806183,-0.9360167980194092,0.15030373045247383,-0.09695557694327687,-0.14746539988414928,0.9727601588623941,-4.7404784709215164e-05,0.007838963530957699,-0.018592195585370064,-0.0013006329536437988,-0.00303804874420166,0.0010069012641906738
2025-09-16T01:57:51Z,-0.15285226106724087,0.326859857559939,-0.2760459399153661,-0.1441965103149414,-0.3210707902908325,-0.9360133409500122,0.15032075269642,-0.0969381621340986,-0.14766012320075322,0.9727297155585461,-0.0008444246486760676,0.0013399883173406124,-0.01838746666908264,-0.00145643949508667,-0.001406937837600708,0.0007678866386413574
2025-09-16T01:57:51Z,-0.15274494115698983,0.32691958314499386,-0.2764596989734668,-0.14409314095973969,-0.32112735509872437,-0.9360098242759705,0.15033777494892667,-0.09692073987434506,-0.1478548465173572,0.9726992722546983,-0.0016414446290582418,-0.005158986430615187,-0.01818273775279522,-0.001612246036529541,0.00022420287132263184,0.000528872013092041
2025-09-16T01:57:51Z,-0.15263116736669297,0.32700571591344657,-0.2768290588038566,-0.1439824402332306,-0.3212089240550995,-0.9359988570213318,0.15037032977322334,-0.096898485129895,-0.14802817322003092,0.9726701052332962,-0.001116578932851553,0.0033862036652863026,-0.015996746718883514,0.0006931424140930176,-0.00210532546043396,-0.004537403583526611
2025-09-16T01:57:51Z,-0.15222977596973214,0.32712522538534683,-0.27721925532167146,-0.14360091090202332,-0.32132208347320557,-0.9360186457633972,0.15043948938266918,-0.09674000124137686,-0.14819085649040792,0.9726504275850327,0.0016497401520609856,0.02789432555437088,-0.01832178607583046,0.005148068070411682,-0.0024528205394744873,-0.007723689079284668
2025-09-16T01:57:51Z,-0.1513949146941352,0.32728253322705314,-0.2776173657160628,-0.14281179010868073,-0.32147106528282166,-0.9360882043838501,0.15055894080235957,-0.09637369636106612,-0.14832572379462577,0.9726476500209243,-0.0016031872946769,0.04171355813741684,-0.022650863975286484,0.004419103264808655,0.0004323720932006836,-0.0031868815422058105
2025-09-16T01:57:51Z,-0.15049403869033867,0.32725802200802845,-0.2780060602250155,-0.14196960628032684,-0.32144784927368164,-0.9362242817878723,0.15059513041308906,-0.0959633224621343,-0.14844630818321414,0.9726642007830821,-0.008245512843132019,0.03577079251408577,-0.015320884063839912,0.0024369657039642334,0.0043347179889678955,0.002863168716430664
2025-09-16T01:57:51Z,-0.14981658214840712,0.32705982799723504,-0.2782924038010165,-0.1413448303937912,-0.32126015424728394,-0.9363832473754883,0.15053498470064008,-0.09564308681407882,-0.14852953377090575,0.9726923577767322,-0.012821625918149948,0.018216298893094063,-0.008574672974646091,0.002839908003807068,0.0032843351364135742,0.004302382469177246
2025-09-16T01:57:51Z,-0.14948153360598648,0.32685306454813823,-0.27848132342962284,-0.14104098081588745,-0.3210643529891968,-0.9364961981773376,0.1504499356844072,-0.09548148276264964,-0.1485909789828661,0.9727120163262217,-0.011263626627624035,0.006622950546443462,-0.005156476050615311,0.0035081058740615845,0.0004971921443939209,0.004644870758056641
2025-09-16T01:57:51Z,-0.14941497215920013,0.3266862720528358,-0.2786132450026885,-0.1409866213798523,-0.3209063708782196,-0.9365585446357727,0.15036718251498263,-0.09544864236090203,-0.14864592835938867,0.9727196421941076,-0.005778523162007332,-0.0022280998528003693,-0.0036917682737112045,0.004163533449172974,0.00014764070510864258,0.003955841064453125
2025-09-16T01:57:51Z,-0.1495112233374007,0.3266116973579432,-0.27871439477834736,-0.1410803198814392,-0.32083573937416077,-0.9365686178207397,0.15031880083978932,-0.09549840883509861,-0.14870047496495067,0.9727139170768407,-0.0010230992920696735,-0.011882074177265167,-0.000713396817445755,0.0022063255310058594,0.0007494091987609863,0.0033066272735595703
2025-09-16T01:57:51Z,-0.14972479474622116,0.3265947521381554,-0.2786866431023782,-0.1412811577320099,-0.3208197057247162,-0.9365438222885132,0.15029597572319758,-0.09559913687225222,-0.14870259815825657,0.9727072389132013,0.00029611121863126755,-0.01197794545441866,0.003583135548979044,0.00181502103805542,0.0008629858493804932,0.000570833683013916
2025-09-16T01:57:51Z,-0.14998459033841766,0.3266005109930316,-0.2786080420414395,-0.14152418076992035,-0.32082515954971313,-0.9365052580833435,0.1502832305334039,-0.09571994091641407,-0.14868403807505623,0.9727001672813679,-0.0017060660757124424,-0.007642916403710842,0.006367920897901058,0.0025030672550201416,0.0019554197788238525,-0.003400444984436035
2025-09-16T01:57:51Z,-0.15008323053207537,0.326547494732889,-0.27846857536895464,-0.14161910116672516,-0.32077494263648987,-0.9365081191062927,0.1502566969695975,-0.09575413096699066,-0.1486222695467143,0.9727103710469975,-0.0044381748884916306,-0.003522108308970928,0.008743536658585072,0.0025085359811782837,0.0015901625156402588,-0.004964649677276611
2025-09-16T01:57:51Z,-0.15014877483174355,0.32641393035187166,-0.27823577028707935,-0.14168690145015717,-0.3206484317779541,-0.9365411996841431,0.15019778565920822,-0.09576021001136975,-0.14851056996223203,0.9727359505843697,-0.002737142611294985,0.0007050354033708572,0.013372864574193954,0.001181080937385559,0.0010014772415161133,-0.002362489700317383
2025-09-16T01:57:51Z,-0.15021223406098433,0.3263962533990843,-0.27804870525751213,-0.14174717664718628,-0.3206316828727722,-0.9365378022193909,0.15019341644369555,-0.09577594062615982,-0.14842391884117295,0.9727482094985936,-0.0003949508536607027,-0.0012191333808004856,0.010416559875011444,0.0009929537773132324,0.000680088996887207,-0.0009226799011230469
2025-09-16T01:57:51Z,-0.1502757239874106,0.3263786583489616,-0.2778616920724447,-0.14180748164653778,-0.3206150233745575,-0.9365343451499939,0.1501890770133624,-0.09579168617634228,-0.14833728268974808,0.9727605280002994,0.0019472409039735794,-0.0031433021649718285,0.007460255175828934,0.0008048415184020996,0.00035879015922546387,0.0005171298980712891
2025-09-16T01:57:51Z,-0.15033921572702177,0.326361026805503,-0.27767468608765133,-0.14186778664588928,-0.3205983340740204,-0.9365309476852417,0.15018472268187869,-0.09580743170940378,-0.14825064653832318,0.9727728465020049,0.004289432428777218,-0.005067470949143171,0.004503950476646423,0.0006167292594909668,3.746151924133301e-05,0.0019568204879760742
2025-09-16T01:57:51Z,-0.1504309695080368,0.3263758369958362,-0.2775921918033656,-0.1419530063867569,-0.3206123411655426,-0.9365132451057434,0.1501891031158562,-0.09584678328202227,-0.1482177899803893,0.9727733014860535,0.0015872176736593246,-0.0063840532675385475,0.0011145537719130516,0.0006012171506881714,-0.0005495846271514893,0.0012744665145874023
2025-09-16T01:57:52Z,-0.15056801626874855,0.32640134215309785,-0.2775900449002965,-0.1420801281929016,-0.320636510848999,-0.9364857077598572,0.15019149848989705,-0.0959148620304921,-0.14822768938319483,0.9727647070381543,-0.0005845387931913137,-0.006526923272758722,-0.0004010095726698637,0.0009891092777252197,-2.2202730178833008e-05,0.00017762184143066406
2025-09-16T01:57:52Z,-0.1506558401699921,0.3264092693131104,-0.27762860243056425,-0.14216198027133942,-0.3206440210342407,-0.9364706873893738,0.15018700497484808,-0.09596096108851422,-0.1482532360215203,0.9727569886821679,-0.0005058126407675445,-0.0042271907441318035,-0.0018216301687061787,0.0021867454051971436,-0.0006086826324462891,-0.0004774928092956543
2025-09-16T01:57:52Z,-0.15070222399379776,0.32643882117763884,-0.2776637730725489,-0.14220400154590607,-0.32067200541496277,-0.936454713344574,0.1501963020462739,-0.09598799504296582,-0.14827458094652143,0.9727496327819714,-0.00019711186178028584,-0.0016473084688186646,-0.0007098773494362831,0.0015380382537841797,-0.00046503543853759766,-0.0009232163429260254
2025-09-16T01:57:52Z,-0.15073247509814,0.3264768600172067,-0.27769764075244363,-0.14223049581050873,-0.3207080364227295,-0.9364383816719055,0.15021100186042827,-0.0960076144222085,-0.14829430178316907,0.9727423979571898,0.0022963329683989286,-0.0005453696940094233,0.0009376250673085451,0.0008902698755264282,-0.001167595386505127,-0.00026541948318481445
2025-09-16T01:57:52Z,-0.15071218434255929,0.3265754621187177,-0.27769236485868054,-0.14220674335956573,-0.32080143690109253,-0.9364100098609924,0.15026088084804484,-0.09600346215096282,-0.1482927290814774,0.9727353664122974,0.0020106867887079716,-0.000585218018386513,0.0005548425251618028,0.0003461986780166626,-0.0004540085792541504,-0.00010323524475097656
2025-09-16T01:57:52Z,-0.15073708499984423,0.3266377727772742,-0.2776415057349393,-0.14222706854343414,-0.32086044549942017,-0.9363867044448853,0.1502918911156944,-0.09601561988252749,-0.14827146192089252,0.9727325894279092,0.0030180178582668304,-0.0009741185931488872,0.0005962593131698668,0.0012529492378234863,-0.0005497634410858154,0.00015020370483398438
2025-09-16T01:57:52Z,-0.1508139273025629,0.32668386759305423,-0.27761245790577754,-0.14229679107666016,-0.32090410590171814,-0.9363611340522766,0.15031008643140725,-0.09605366857469748,-0.148264288166666,0.9727271140399747,0.0010317580308765173,-0.0012213544687256217,-0.0006040330627001822,0.0006839781999588013,0.00016671419143676758,-0.00035840272903442383
2025-09-16T01:57:52Z,-0.15093333874531278,0.3266948769881796,-0.277611186497132,-0.1424080729484558,-0.32091453671455383,-0.9363406300544739,0.15030666626744066,-0.09611233055229217,-0.14827292330019481,0.9727205476037435,-0.000414252863265574,-0.0037657786160707474,-0.0019081863574683666,0.00026513636112213135,6.455183029174805e-05,-0.00013893842697143555
2025-09-16T01:57:52Z,-0.15107918859135042,0.3266370661190896,-0.2776198555606274,-0.14254742860794067,-0.32085978984832764,-0.9363381862640381,0.15026721924491995,-0.09618033142288727,-0.14828661437499843,0.9727178496623395,-0.0038199294358491898,-0.008267590776085854,-0.00010363105684518814,0.00017242133617401123,0.00044727325439453125,0.00036454200744628906
2025-09-16T01:57:52Z,-0.15123531799602538,0.3265525226968439,-0.27763240508762654,-0.14269770681858063,-0.3207797110080719,-0.9363427758216858,0.150213775847386,-0.09625196699882055,-0.14830227411368857,0.9727166395759033,-0.0052565960213541985,-0.009083357639610767,0.0031047884840518236,6.669759750366211e-05,0.0001729726791381836,0.00014102458953857422
2025-09-16T01:57:52Z,-0.15142621125550904,0.3263995516839018,-0.2775764173523792,-0.14288385212421417,-0.3206348121166229,-0.9363639950752258,0.1501276604389926,-0.09633112737921985,-0.14828544498935806,0.9727246459386765,-0.004550658632069826,-0.008928118273615837,0.005375297740101814,-0.0012249648571014404,0.0004832744598388672,0.0007001161575317383
2025-09-16T01:57:52Z,-0.15164290581984777,0.3262467114840034,-0.277514188223816,-0.14309415221214294,-0.3204900324344635,-0.936381459236145,0.15003999631846346,-0.0964223782798228,-0.1482674973883265,0.9727318787257151,-0.005260898265987635,-0.007646978832781315,0.0069002690725028515,-0.0013973861932754517,0.0009427368640899658,-0.0003389120101928711
2025-09-16T01:57:52Z,-0.15171914746421744,0.32615591901463475,-0.27740035812976704,-0.14316993951797485,-0.3204040229320526,-0.9363992810249329,0.14999551979450282,-0.09644529733109436,-0.14821550668566097,0.972744395839287,-0.003780767321586609,-0.0034534865990281105,0.005194028839468956,-0.0009086579084396362,0.00032144784927368164,-0.0004698038101196289
2025-09-16T01:57:52Z,-0.1517953931552977,0.32606512426422696,-0.2772865396689037,-0.14324572682380676,-0.3203180134296417,-0.9364171028137207,0.14995104326198178,-0.09646822383294121,-0.14816351598299538,0.9727569129528586,-0.0023006361443549395,0.0007400051690638065,0.003487788839265704,-0.0004199594259262085,-0.00029978156089782715,-0.0006006360054016113
2025-09-16T01:57:52Z,-0.15178453562743457,0.32602814560140136,-0.27722221651246776,-0.14323735237121582,-0.3202829957008362,-0.9364303946495056,0.14993690138792432,-0.09645583216217694,-0.14813045998621577,0.9727653551929508,-0.0012643806403502822,0.0004061502404510975,0.0011195661500096321,-0.0002011507749557495,-0.0010378062725067139,-5.364418029785156e-05
2025-09-16T01:57:52Z,-0.15177368865145563,0.3259912015462487,-0.2771578920027317,-0.14322899281978607,-0.320248007774353,-0.9364436268806458,0.14992277440645693,-0.09644344795910889,-0.14809740398943613,0.9727737974330433,-0.00022812513634562492,7.229531183838844e-05,-0.0012486567720770836,1.7642974853515625e-05,-0.0017757713794708252,0.0004933476448059082
2025-09-16T01:57:52Z,-0.151760980598947,0.326006473575963,-0.27722292886737876,-0.1432163417339325,-0.32026246190071106,-0.9364405870437622,0.14992803493201748,-0.0964430889249281,-0.1481284814889914,0.9727682780954168,0.0005459694075398147,-0.0010728636989369988,-0.006360528990626335,-0.0005317777395248413,-0.0022960007190704346,0.00018721818923950195
2025-09-16T01:57:52Z,-0.151704309907083,0.3260733526739925,-0.2773877577041576,-0.14316004514694214,-0.3203258216381073,-0.9364275336265564,0.14995692611677483,-0.09643202074894303,-0.1482061289594495,0.9727531088969826,0.002577836625277996,0.002399895340204239,-0.010840659961104393,0.0009485483169555664,-0.0030604898929595947,0.00035756826400756836
