timestamp,attitude_roll,attitude_pitch,attitude_yaw,gravity_x,gravity_y,gravity_z,quaternion_x,quaternion_y,quaternion_z,quaternion_w,rotation_rate_x,rotation_rate_y,rotation_rate_z,user_acceleration_x,user_acceleration_y,user_acceleration_z
2025-09-20T02:18:20Z,0.035661241342192104,0.11709415044885677,0.2057250178754019,-0.15732789039611816,-0.31605350971221924,-0.9356057643890381,0.05636746328448957,0.023712343628074097,0.10352675466239179,0.9927449535069283,0.12376800179481506,0.08070860803127289,0.2893892824649811,0.007066100835800171,-0.018945932388305664,-0.009632229804992676
2025-09-20T02:18:20Z,0.0365905482032954,0.1198017899258379,0.21133565948286512,-0.1576332449913025,-0.31750398874282837,-0.9350630640983582,0.057595154160139696,0.02447257870972691,0.10635359517081633,0.9923571563824083,0.1236293762922287,0.07645668089389801,0.27417486906051636,0.00633712112903595,-0.022448956966400146,-0.01075834035873413
2025-09-20T02:18:20Z,0.0375082311125686,0.1224492620812918,0.21663815981466633,-0.15788158774375916,-0.3189496099948883,-0.9345290660858154,0.0587935524573283,0.025221716817536505,0.10902656338064072,0.9919779911591442,0.12054917961359024,0.07926720380783081,0.2609201669692993,0.008267596364021301,-0.02184128761291504,-0.013745009899139404
2025-09-20T02:18:20Z,0.03845480284178888,0.12503197082126555,0.2216748517204532,-0.15804436802864075,-0.3203790485858917,-0.9340124130249023,0.05995796882020693,0.025980067351828236,0.11156794373224926,0.9916060504602352,0.11554529517889023,0.0776388868689537,0.24660907685756683,0.007975265383720398,-0.020659685134887695,-0.01460486650466919
2025-09-20T02:18:20Z,0.039473795666350384,0.12750193094876147,0.2265057649764963,-0.1580931544303894,-0.3217371702194214,-0.9335372447967529,0.06106153032110902,0.026767629880801804,0.11400866907566172,0.9912400351355768,0.11005868017673492,0.08367006480693817,0.23937171697616577,0.008528798818588257,-0.01956269145011902,-0.013151109218597412
2025-09-20T02:18:21Z,0.040508872347706275,0.12987350664025354,0.23114579078712,-0.1580842286348343,-0.32303524017333984,-0.933090329170227,0.062114439826450825,0.02755697959032374,0.11635462035820743,0.9908803181242367,0.10629118233919144,0.08162283152341843,0.2267833650112152,0.008406445384025574,-0.021970152854919434,-0.009032726287841797
2025-09-20T02:18:21Z,0.04128388997805858,0.13206124668136665,0.23505522986612865,-0.15816743671894073,-0.324300080537796,-0.9326373934745789,0.06309854409929896,0.028188717857587132,0.11832930190698669,0.9905665702550036,0.09907396137714386,0.07222262769937515,0.21016307175159454,0.008174240589141846,-0.021481066942214966,-0.008789896965026855
2025-09-20T02:18:21Z,0.04205050086427738,0.1342519319956173,0.2389640566156175,-0.1582561731338501,-0.32556357979774475,-0.9321820139884949,0.06408229572292103,0.028820306621130092,0.12030333772545311,0.9902474017435627,0.09185674786567688,0.06282242387533188,0.19354277849197388,0.007947593927383423,-0.020993292331695557,-0.00854945182800293
2025-09-20T02:18:21Z,0.04280867741696163,0.13644558545529,0.24287235729616216,-0.15835054218769073,-0.3268258273601532,-0.9317241907119751,0.06506571088180788,0.029451734101449717,0.12227672736540283,0.989922936093955,0.0846395343542099,0.053422220051288605,0.1769224852323532,0.007726565003395081,-0.02050679922103882,-0.00831139087677002
2025-09-20T02:18:21Z,0.043349645673738696,0.13829141456013871,0.24631334231297725,-0.15854841470718384,-0.3278547525405884,-0.9313289523124695,0.065895126390292,0.029943056553043114,0.1240093098682049,0.9896377375689943,0.07159492373466492,0.04433497041463852,0.15754550695419312,0.006193220615386963,-0.02053162455558777,-0.00743478536605835
2025-09-20T02:18:21Z,0.04378018787065259,0.13981024947494114,0.24932506691660758,-0.15875868499279022,-0.32866349816322327,-0.9310080409049988,0.06657460967932145,0.030348279345600228,0.12552349265536605,0.9893890082381899,0.060367874801158905,0.03626357764005661,0.13832370936870575,0.006225451827049255,-0.0214899480342865,-0.006035149097442627
2025-09-20T02:18:21Z,0.04403470258334617,0.14106569403816463,0.25185206429142126,-0.15903301537036896,-0.32932284474372864,-0.9307281970977783,0.06714126648942495,0.03063592107423857,0.12679009644981398,0.9891803257359938,0.050697967410087585,0.021031402051448822,0.11274650692939758,0.006098806858062744,-0.02508726716041565,-0.0047051310539245605
2025-09-20T02:18:21Z,0.04408950616427601,0.14218768826947564,0.2538631035750315,-0.15938979387283325,-0.32995980978012085,-0.9304414987564087,0.06766198901811837,0.03080047165126489,0.1277937192555523,0.9890106040200187,0.0461130253970623,0.014494778588414192,0.08758348226547241,0.006965368986129761,-0.02660536766052246,-0.007109463214874268
2025-09-20T02:18:21Z,0.044131575143114776,0.14319623753983304,0.2554229248897959,-0.159668430685997,-0.3305806815624237,-0.9301733374595642,0.06813411532194485,0.030937293172640233,0.1285728687619135,0.9888729625928906,0.0436553880572319,0.010536957532167435,0.06992040574550629,0.007559493184089661,-0.025719761848449707,-0.008062601089477539
2025-09-20T02:18:21Z,0.04412985285289938,0.1441742214700048,0.25672619087685805,-0.15993714332580566,-0.33122360706329346,-0.9298984408378601,0.06859775307711201,0.03104248625699291,0.129223348209474,0.9887527921749371,0.043540459126234055,0.005796351470053196,0.05757104605436325,0.007572352886199951,-0.024083882570266724,-0.008941054344177246
2025-09-20T02:18:21Z,0.04408846112523189,0.1451383704528869,0.25776882962236386,-0.16019172966480255,-0.3319050669670105,-0.9296115636825562,0.0690610549104211,0.03111880327793224,0.12974340151227287,0.9886500293671276,0.04290423169732094,0.0033881887793540955,0.046282004565000534,0.007407814264297485,-0.02376919984817505,-0.008970320224761963
2025-09-20T02:18:21Z,0.043966931596689754,0.1461111249600913,0.25859887200149845,-0.1604795902967453,-0.3326363265514374,-0.9293004870414734,0.06953706458252662,0.031149150130801943,0.13015551521357482,0.9885615567561787,0.0451558455824852,-0.0058975545689463615,0.04039423167705536,0.005793973803520203,-0.02068278193473816,-0.008175194263458252
2025-09-20T02:18:21Z,0.0437615739281268,0.14709033388078954,0.2595555912033462,-0.16086970269680023,-0.333347886800766,-0.9289780259132385,0.07001973746395887,0.031143310409922995,0.13062720287964696,0.9884654542001143,0.04550474137067795,-0.0020051775500178337,0.05035848170518875,0.006111204624176025,-0.01806783676147461,-0.009529471397399902
2025-09-20T02:18:21Z,0.04355521348542209,0.14806939304631533,0.26051264835573273,-0.16126051545143127,-0.3340587913990021,-0.9286548495292664,0.07050240292584253,0.031137447038790542,0.1310988291435052,0.9883688737014455,0.0458536371588707,0.0018871999345719814,0.06032273545861244,0.006429135799407959,-0.015453517436981201,-0.010884523391723633
2025-09-20T02:18:21Z,0.04345972547832111,0.14908455806460624,0.26170496612307004,-0.16159401834011078,-0.334755539894104,-0.9283459186553955,0.07099195846732353,0.031197506537818755,0.13169065576601371,0.9882532494845518,0.04774470627307892,0.005528558045625687,0.06765613704919815,0.005352810025215149,-0.015833288431167603,-0.010213673114776611
2025-09-20T02:18:21Z,0.043336361274747194,0.15017324638905608,0.2631183895990168,-0.16199670732021332,-0.33547526597976685,-0.9280158877372742,0.0715161789175213,0.03125703437162034,0.13239097830441343,0.9881199937516741,0.050451863557100296,0.005740515887737274,0.07550361752510071,0.005653470754623413,-0.01579219102859497,-0.008445143699645996
2025-09-20T02:18:21Z,0.04325187766713822,0.1512593014931692,0.2645975345589785,-0.16237545013427734,-0.336178719997406,-0.9276950359344482,0.07203541171744036,0.03133871780236202,0.1331249242000835,0.9879810657655974,0.04846389219164848,0.00602027727290988,0.07281199097633362,0.0065176039934158325,-0.016984373331069946,-0.00863659381866455
2025-09-20T02:18:21Z,0.04316574058833255,0.15234526195023285,0.2660770200389974,-0.1627553254365921,-0.33688127994537354,-0.9273735880851746,0.07255460119852586,0.03142037084368335,0.13385876165543498,0.9878412969617376,0.04647592082619667,0.006300038658082485,0.07012037187814713,0.007382839918136597,-0.018177419900894165,-0.00882875919342041
2025-09-20T02:18:21Z,0.04307799490896279,0.15343109286453321,0.2675568533023026,-0.16313627362251282,-0.3375829756259918,-0.9270514249801636,0.07307372423894407,0.03150201127335094,0.1345924860954855,0.9877007437379233,0.04448794946074486,0.006579800043255091,0.06742874532938004,0.008249163627624512,-0.019371390342712402,-0.009021639823913574
2025-09-20T02:18:21Z,0.0429725058931661,0.15437711244527175,0.2689031642635917,-0.16350559890270233,-0.338182270526886,-0.926767885684967,0.07352698722443572,0.03156153271731745,0.13525864763002932,0.9875741840704408,0.03919243440032005,0.002124500460922718,0.05899876728653908,0.0075675249099731445,-0.020994573831558228,-0.008196890354156494
2025-09-20T02:18:21Z,0.04280267106773374,0.1551788400868929,0.2699848648412945,-0.16388148069381714,-0.33870160579681396,-0.9265117645263672,0.0739174634453293,0.03157055712363781,0.13579081883697577,0.9874717183135078,0.03330480307340622,-0.003519961144775152,0.04588726907968521,0.007936269044876099,-0.022543132305145264,-0.008493304252624512
2025-09-20T02:18:21Z,0.042618154509360615,0.15582377795489702,0.2707348131081324,-0.16420502960681915,-0.339143306016922,-0.926292896270752,0.07423673382245155,0.03155002161961898,0.1361576721358615,0.9873979254453388,0.025818485766649246,-0.005925253964960575,0.02541739121079445,0.009944185614585876,-0.025006115436553955,-0.009749770164489746
2025-09-20T02:18:21Z,0.04237135498029616,0.1562653383223714,0.2711380539809027,-0.16451697051525116,-0.33946773409843445,-0.9261186718940735,0.07446528543320928,0.03147252715726624,0.1363498809639824,0.9873566770364235,0.01654665544629097,-0.01319746021181345,0.013941634446382523,0.007978931069374084,-0.022997230291366577,-0.007328927516937256
2025-09-20T02:18:21Z,0.04194134342708952,0.15653808021913004,0.27126937958756814,-0.16494415700435638,-0.33969175815582275,-0.9259605407714844,0.07462725435083659,0.03128328975842127,0.13640008717293092,0.9873435077952878,0.008314460515975952,-0.024230705574154854,0.0034406790509819984,0.006316065788269043,-0.021689236164093018,-0.005300641059875488
2025-09-20T02:18:21Z,0.04146574067217726,0.15669606338987083,0.27121580495656367,-0.16537651419639587,-0.339847594499588,-0.9258262515068054,0.0747385486597416,0.03105701561038626,0.1363566737891637,0.9873482063828831,0.00379013828933239,-0.018562495708465576,-0.00784907117486,0.007177785038948059,-0.02313646674156189,-0.008620738983154297
2025-09-20T02:18:21Z,0.04121900836149989,0.1567865194991538,0.27086507812024735,-0.1655392348766327,-0.3400011956691742,-0.9257407784461975,0.07480546861867568,0.03092811316025018,0.13617474421018355,0.9873723190589235,0.004861896857619286,-0.01681390032172203,-0.022583041340112686,0.007441774010658264,-0.025829017162322998,-0.008816242218017578
2025-09-20T02:18:21Z,0.041082288233152346,0.156910370865701,0.2701593971355495,-0.1655326932668686,-0.3402567207813263,-0.925648033618927,0.07488683539957178,0.030842430271910377,0.13582183999880368,0.987417433464327,0.009171915240585804,-0.011467894539237022,-0.04683999344706535,0.009352073073387146,-0.028666049242019653,-0.011735320091247559
2025-09-20T02:18:21Z,0.04103782682587296,0.15706586676312664,0.2690044653057576,-0.1653551161289215,-0.340631365776062,-0.9255419969558716,0.07498445115317641,0.03078749681643802,0.13525071475688835,0.9874901023667029,0.007846946828067303,-0.00746154086664319,-0.06551994383335114,0.010046228766441345,-0.0252896249294281,-0.014176785945892334
2025-09-20T02:18:21Z,0.041189791538292324,0.15719279218184568,0.26754698209318317,-0.1649371236562729,-0.3410401940345764,-0.925466001033783,0.0750593445995389,0.030816216327450584,0.13453737438762084,0.9875809966366136,0.006536275148391724,-0.0016452372074127197,-0.0726490393280983,0.01072026789188385,-0.02029922604560852,-0.014596343040466309
2025-09-20T02:18:21Z,0.04139094102428083,0.15729830134307532,0.2660365378130865,-0.16446271538734436,-0.34143948554992676,-0.9254032373428345,0.07512126853581444,0.03086574644986325,0.13379957601431275,0.9876749494751462,0.009635484777390957,-0.004130836576223373,-0.07035551965236664,0.009242087602615356,-0.015312612056732178,-0.011462986469268799
2025-09-20T02:18:21Z,0.041435030680759335,0.1575614956551556,0.2647057831070803,-0.16416999697685242,-0.34194716811180115,-0.92526775598526,0.07526889616036687,0.030854626666140455,0.133145353703073,0.9877524749715237,0.01724577322602272,-0.011886022984981537,-0.05402279645204544,0.00649966299533844,-0.009835600852966309,-0.007372915744781494
2025-09-20T02:18:21Z,0.04131823926411483,0.15824426466627256,0.2642628447932146,-0.16420254111289978,-0.34266215562820435,-0.9249973893165588,0.0756208446292041,0.03082454849427765,0.1329256179594894,0.9877561441026899,0.026220764964818954,-0.01043645665049553,-0.035631462931632996,0.00595913827419281,-0.010199248790740967,-0.008181214332580566
2025-09-20T02:18:21Z,0.04120173024541446,0.15892709294387958,0.26381985791872575,-0.1642347127199173,-0.34337690472602844,-0.9247266054153442,0.07597279483460974,0.030794463481146204,0.13270583582232126,0.9877595150868982,0.03519575670361519,-0.008986889384686947,-0.0172401312738657,0.00541822612285614,-0.010563075542449951,-0.008989930152893066
2025-09-20T02:18:21Z,0.041085549610567165,0.159609938885079,0.26337699692634853,-0.16426657140254974,-0.344091534614563,-0.9244552850723267,0.0763247004396458,0.03076438332609951,0.13248605638157585,0.9877628802532213,0.044170744717121124,-0.007537322584539652,0.001151200383901596,0.004877015948295593,-0.01092711091041565,-0.009799182415008545
2025-09-20T02:18:21Z,0.040946326447443906,0.16050116373777634,0.2633822370438164,-0.1644088476896286,-0.3449075222015381,-0.9241257905960083,0.07677418660454038,0.03075341522108644,0.13248766988012325,0.9877281620418747,0.048833101987838745,-0.005755256861448288,0.014163395389914513,0.0037075579166412354,-0.013291388750076294,-0.012166261672973633
2025-09-20T02:18:21Z,0.040764458984439214,0.1614695361729531,0.26364704984786397,-0.16464152932167053,-0.34574219584465027,-0.9237724542617798,0.07726060723554955,0.03073639909165077,0.1326160993935277,0.987673557172846,0.04908217117190361,-0.007846001535654068,0.015541503205895424,0.0038003474473953247,-0.01726362109184265,-0.012587308883666992
2025-09-20T02:18:21Z,0.04048784847052295,0.16245643017608646,0.2638968976451163,-0.16495895385742188,-0.34659647941589355,-0.9233956336975098,0.07776268357618059,0.030673344306661677,0.13273341078130146,0.9876203862486443,0.046833429485559464,-0.016375035047531128,0.011832740157842636,0.0030520856380462646,-0.01853710412979126,-0.010006129741668701
2025-09-20T02:18:21Z,0.04014000131418388,0.16336864488178335,0.2639687123034451,-0.16530665755271912,-0.34741753339767456,-0.9230247735977173,0.07823532215668633,0.03056344223632699,0.1327595096852435,0.9875829423119936,0.040573667734861374,-0.020932737737894058,-0.0007678288966417313,0.00505983829498291,-0.02048492431640625,-0.011254310607910156
2025-09-20T02:18:21Z,0.03987253626355918,0.1640924294550809,0.2637743445565323,-0.1655261367559433,-0.3481189012527466,-0.9227211475372314,0.07861359383790088,0.030470606750134847,0.13265631677244327,0.9875695456733112,0.03168346732854843,-0.009790252894163132,-0.01450908649712801,0.009100735187530518,-0.021973371505737305,-0.01463925838470459
2025-09-20T02:18:21Z,0.03976889034900217,0.16472112078768583,0.26317555694901174,-0.1655152142047882,-0.3488137423992157,-0.922460675239563,0.07894015438159474,0.030436476980044213,0.13235935392597836,0.9875843884305677,0.027702387422323227,-0.008353469893336296,-0.036588214337825775,0.00882650911808014,-0.024295270442962646,-0.010631084442138672
2025-09-20T02:18:21Z,0.03968741556063274,0.16525307878774698,0.2622167976518202,-0.165413036942482,-0.34949150681495667,-0.9222224354743958,0.07922291351068833,0.0303926132110171,0.1318850447353087,0.9876265467204901,0.022618111222982407,-0.015886712819337845,-0.05451655015349388,0.006439387798309326,-0.022309064865112305,-0.0040634870529174805
2025-09-20T02:18:21Z,0.03944690325754794,0.16563653479697685,0.2608491208265231,-0.16537629067897797,-0.3501144349575043,-0.9219927191734314,0.07944891116185394,0.03024418722504536,0.1312017845766478,0.9877039364725811,0.015100684016942978,-0.037207551300525665,-0.07756879925727844,0.0029926449060440063,-0.02370893955230713,-0.00047898292541503906
2025-09-20T02:18:21Z,0.03888131519907208,0.16580834170915218,0.25891091616776696,-0.16552551090717316,-0.3506566286087036,-0.921759843826294,0.07959990658728247,0.02989873722763784,0.13022278751250804,0.9878318535346339,0.008193464949727058,-0.053868576884269714,-0.11066363006830215,0.003766760230064392,-0.027743935585021973,-0.0018688440322875977
2025-09-20T02:18:21Z,0.038109992327437114,0.16586530818441242,0.2562524767449784,-0.16572214663028717,-0.3512357175350189,-0.921504020690918,0.07971743765461307,0.029415447049052714,0.12887913241563206,0.9880131330823275,0.0028664194978773594,-0.0671832486987114,-0.1473933458328247,0.00664520263671875,-0.02918088436126709,-0.0046593546867370605
2025-09-20T02:18:21Z,0.03730094984889972,0.16573618568376017,0.2528900714293744,-0.16581231355667114,-0.3517821431159973,-0.9212793111801147,0.0797544079876168,0.028873609943331165,0.12718510871832592,0.9882456093927476,-0.004838939290493727,-0.07072558999061584,-0.17945712804794312,0.008830755949020386,-0.028486281633377075,-0.008474946022033691
2025-09-20T02:18:21Z,0.03651250796579067,0.16544086471912126,0.24894554676910297,-0.16576504707336426,-0.3522889316082001,-0.9210941791534424,0.079714540856572,0.028308522413683146,0.12520315469093918,0.9885182662425194,-0.01272544078528881,-0.07400605082511902,-0.20599117875099182,0.007788464426994324,-0.02633240818977356,-0.008835136890411377
2025-09-20T02:18:21Z,0.03554507910230694,0.16461118319782256,0.2436899295843168,-0.16561491787433624,-0.3525606095790863,-0.9210172295570374,0.07943757836547546,0.02757099047956297,0.1225633418135088,0.988892161153881,-0.02419068105518818,-0.08329048752784729,-0.23975467681884766,0.0076202452182769775,-0.028290361166000366,-0.011108219623565674
2025-09-20T02:18:21Z,0.03457338755708508,0.16378651193196062,0.23843421526565983,-0.16546323895454407,-0.35283151268959045,-0.9209407567977905,0.07915999451774802,0.026833250534309933,0.11992258117136546,0.9892583941444643,-0.0356559194624424,-0.09257492423057556,-0.2735181450843811,0.007450461387634277,-0.030249029397964478,-0.013380765914916992
2025-09-20T02:18:21Z,0.033597453452268104,0.16296687261395554,0.2331784018780345,-0.16530999541282654,-0.3531016707420349,-0.9208647012710571,0.07888179109688327,0.026095305189617606,0.11728089485588504,0.9896169639614154,-0.047121159732341766,-0.10185935348272324,-0.30728164315223694,0.007279112935066223,-0.03220847249031067,-0.015652954578399658
2025-09-20T02:18:21Z,0.0325500730372044,0.16178562592127277,0.2268720196625159,-0.16500280797481537,-0.35323774814605713,-0.9208676218986511,0.07843854863780006,0.02526214706920231,0.11411439615870188,0.9900439496611382,-0.05624382197856903,-0.10904412716627121,-0.33614805340766907,0.007065430283546448,-0.030541688203811646,-0.014814555644989014
2025-09-20T02:18:22Z,0.031508425644508835,0.16036843939479625,0.21989808617605822,-0.16454559564590454,-0.3532775044441223,-0.9209342002868652,0.07788173938639013,0.024396036422314048,0.1106157374600937,0.9905066278113013,-0.06613221019506454,-0.10599586367607117,-0.36080512404441833,0.009561136364936829,-0.027757078409194946,-0.013648808002471924
2025-09-20T02:18:22Z,0.03064243843660914,0.15873780856880026,0.21238766766815145,-0.16380618512630463,-0.35321369767189026,-0.9210904836654663,0.07721092536572685,0.02358919673262868,0.10685613963673694,0.9909912910348361,-0.07777650654315948,-0.10282409191131592,-0.38517996668815613,0.009481087327003479,-0.024661093950271606,-0.008666753768920898
2025-09-20T02:18:22Z,0.029822563327176213,0.15683800758334435,0.20436221627841467,-0.16290558874607086,-0.352988600730896,-0.9213364124298096,0.0764051112361174,0.022777291393484327,0.10284060300152156,0.9914974729520959,-0.09151163697242737,-0.11012724041938782,-0.41443923115730286,0.00870707631111145,-0.023770064115524292,-0.00649571418762207
2025-09-20T02:18:22Z,0.028854692185440095,0.15459632782862792,0.19576714440365442,-0.16200856864452362,-0.35254284739494324,-0.9216652512550354,0.07543788521673454,0.021860753256833183,0.09853411056009513,0.9920293614879879,-0.110389344394207,-0.11203376948833466,-0.4388922154903412,0.008815884590148926,-0.021921128034591675,-0.010319769382476807
2025-09-20T02:18:22Z,0.028073308460846633,0.15197408388653275,0.18671848643310957,-0.16082821786403656,-0.35181593894958496,-0.9221495985984802,0.07427117314309024,0.021011022116478303,0.0940064221917987,0.9925749709246208,-0.12659601867198944,-0.10756494849920273,-0.45816531777381897,0.007930800318717957,-0.022241652011871338,-0.013446152210235596
2025-09-20T02:18:22Z,0.02731698224563507,0.14911817769270808,0.17730656366575964,-0.15953174233436584,-0.35092291235923767,-0.92271488904953,0.07298469285759289,0.02016115871101241,0.08929638772965753,0.9931227434437505,-0.13543279469013214,-0.1088782548904419,-0.4797608554363251,0.006670072674751282,-0.02477511763572693,-0.01499396562576294
2025-09-20T02:18:22Z,0.026603865086738388,0.1461034366161255,0.16746081279131025,-0.15808655321598053,-0.34994247555732727,-0.9233357310295105,0.07161516143861157,0.019323124663822754,0.08436961433105769,0.9936696822450631,-0.141143336892128,-0.1107930839061737,-0.5021679401397705,0.006243124604225159,-0.02588149905204773,-0.013814270496368408
2025-09-20T02:18:22Z,0.025759007545756874,0.14298116944903347,0.1572543322430807,-0.1566682606935501,-0.3489057123661041,-0.9239696264266968,0.07019408974635317,0.018416625575969486,0.07925615392460432,0.9942092741977371,-0.1449069380760193,-0.12074235081672668,-0.5106486678123474,0.00526803731918335,-0.020019352436065674,-0.009516596794128418
2025-09-20T02:18:22Z,0.024691120833888018,0.13981734129361886,0.14701591389016383,-0.15543116629123688,-0.34781238436698914,-0.9245905876159668,0.06875335812986391,0.017411481065128596,0.07411681311050107,0.9947243123015448,-0.1513044536113739,-0.1315244734287262,-0.5014106631278992,0.004527181386947632,-0.012952327728271484,-0.008318901062011719
2025-09-20T02:18:22Z,0.023434360577544673,0.1364544112587379,0.13709908672551832,-0.15441979467868805,-0.34645524621009827,-0.9252693057060242,0.06720881117124504,0.016331534625568377,0.06912873583776101,0.9952072294112388,-0.16322040557861328,-0.1327604502439499,-0.48205408453941345,0.007293045520782471,-0.007618159055709839,-0.008198142051696777
2025-09-20T02:18:22Z,0.02207543627661672,0.13295360804979472,0.12759924702476813,-0.15357786417007446,-0.3448755145072937,-0.9259993433952332,0.06558651035304566,0.01522564783880383,0.06434335744895454,0.9956538226858852,-0.16939230263233185,-0.12665952742099762,-0.4660498797893524,0.009159564971923828,-0.009920448064804077,-0.008867919445037842
2025-09-20T02:18:22Z,0.020830112396351026,0.12942467865788745,0.11833415830565701,-0.152668759226799,-0.3432074189186096,-0.9267690777778625,0.0639359540395984,0.014198610776222774,0.0596779134621444,0.9960668411104409,-0.16568587720394135,-0.12709912657737732,-0.45626431703567505,0.009274914860725403,-0.012753605842590332,-0.004002809524536133
2025-09-20T02:18:22Z,0.01931405874974948,0.1260638275998687,0.10914140360576834,-0.1520153284072876,-0.34166088700294495,-0.9274476766586304,0.06236780617501833,0.013058907147896344,0.0550401481199091,0.9964488824879052,-0.15512694418430328,-0.1445959508419037,-0.45800259709358215,0.0069534629583358765,-0.017370909452438354,-0.0024762749671936035
2025-09-20T02:18:22Z,0.017447162209912714,0.12287857790946852,0.09994875315290272,-0.15167659521102905,-0.34025561809539795,-0.9280195832252502,0.060886704434071334,0.011763205010746961,0.05039238414878014,0.9968024514254422,-0.1471484750509262,-0.15123003721237183,-0.454774409532547,0.006973132491111755,-0.016215085983276367,-0.009601831436157227
2025-09-20T02:18:22Z,0.015560076935386108,0.11989165005376254,0.09085360786616448,-0.15136806666851044,-0.3389968276023865,-0.9285304546356201,0.05949365241813098,0.010478472749897315,0.04579385907910041,0.9971226474827593,-0.13897663354873657,-0.14523684978485107,-0.4491282105445862,0.010698989033699036,-0.014257490634918213,-0.01741921901702881
2025-09-20T02:18:22Z,0.013927902233806107,0.11728073090882771,0.08206337672322132,-0.15088242292404175,-0.3380165100097656,-0.9289668202400208,0.058270847504103544,0.009350075377004581,0.04135646398133397,0.997399961092729,-0.12439002841711044,-0.13717544078826904,-0.43657320737838745,0.011011272668838501,-0.012082219123840332,-0.015250861644744873
2025-09-20T02:18:22Z,0.012273183045881774,0.11468416304604832,0.07327153948607193,-0.15040656924247742,-0.33703088760375977,-0.9294019937515259,0.057046729800503765,0.00822146702051327,0.03691813904696266,0.9976548153220948,-0.10980342328548431,-0.12911401689052582,-0.42401817440986633,0.011333346366882324,-0.009912163019180298,-0.01308363676071167
2025-09-20T02:18:22Z,0.01068188075726743,0.11255997074276199,0.06476998982181548,-0.1499294936656952,-0.33641862869262695,-0.9297008514404297,0.056047320929134184,0.007150983176031637,0.03262787718399738,0.9978692310290319,-0.09027263522148132,-0.12317349761724472,-0.4130839705467224,0.011591345071792603,-0.009625941514968872,-0.010879874229431152
2025-09-20T02:18:22Z,0.009165106855990571,0.11083935805383704,0.0566442118514573,-0.14946098625659943,-0.33610472083091736,-0.9298897981643677,0.05523894700056536,0.006142239203017144,0.0285282765906488,0.9980466510858442,-0.07249269634485245,-0.12415050715208054,-0.3940781354904175,0.010119318962097168,-0.005435079336166382,-0.009110212326049805
2025-09-20T02:18:22Z,0.00760406001725242,0.10948281236524797,0.04887632939807101,-0.14910823106765747,-0.33605772256851196,-0.9299634099006653,0.054604570166956606,0.005132160596707482,0.02460691399532582,0.9981916419512983,-0.056725986301898956,-0.12056311219930649,-0.37230804562568665,0.01192241907119751,-0.003547966480255127,-0.01177138090133667
2025-09-20T02:18:22Z,0.006015836971855853,0.10839519787454951,0.041637064451184466,-0.1488959640264511,-0.33616524934768677,-0.9299585819244385,0.054096560552883595,0.004130521908394083,0.020949274141998077,0.9983074092585025,-0.04453933984041214,-0.11431176960468292,-0.3440183401107788,0.013298019766807556,-0.0026766955852508545,-0.017075657844543457
2025-09-20T02:18:22Z,0.004606656318902569,0.10753541525728082,0.034912391899299226,-0.1486305445432663,-0.33639392256736755,-0.9299183487892151,0.053693327229337375,0.003237724446804314,0.017553804017910495,0.9983979169156986,-0.03989306837320328,-0.10481743514537811,-0.32148540019989014,0.014272645115852356,-0.0035977959632873535,-0.021209776401519775
2025-09-20T02:18:22Z,0.0033462005855191485,0.10673833446886756,0.028604011938698135,-0.14831827580928802,-0.3366076648235321,-0.9298908710479736,0.05331441184112914,0.002433443273220721,0.014370376379277489,0.9984714042368298,-0.038320887833833694,-0.09581848233938217,-0.3012198805809021,0.01329028606414795,-0.004193902015686035,-0.022722721099853516
2025-09-20T02:18:22Z,0.002152641541994525,0.10596179994294425,0.022684041646604317,-0.14802981913089752,-0.336773157119751,-0.9298768639564514,0.05294049139818707,0.0016753573993141663,0.011382851081636829,0.9985313662120864,-0.03547386825084686,-0.08481255173683167,-0.28010836243629456,0.01099446415901184,-0.0039726197719573975,-0.018876373767852783
2025-09-20T02:18:22Z,0.0009710996270383851,0.10527012658009681,0.017188643658826323,-0.1478259563446045,-0.3369464874267578,-0.9298465251922607,0.05260464847489856,0.000937007722716315,0.008607857363441546,0.9985778411692902,-0.029668990522623062,-0.08927208185195923,-0.2581901252269745,0.009832039475440979,-0.004280269145965576,-0.010264039039611816
2025-09-20T02:18:22Z,-0.0002454102094055786,0.1047162138669207,0.011994774497026602,-0.147722065448761,-0.3371965289115906,-0.9297723770141602,0.05233398174077583,0.00019133176520903022,0.00598271113234365,0.9986116914051868,-0.021314119920134544,-0.09158030897378922,-0.25362998247146606,0.012480735778808594,-0.00912100076675415,-0.008935630321502686
2025-09-20T02:18:22Z,-0.001448309800512736,0.1043318367616477,0.006837629868297526,-0.14761026203632355,-0.3375924825668335,-0.9296464920043945,0.052144415809323184,-0.0005449011690472485,0.003376397806586724,0.9986336993300667,-0.017741184681653976,-0.08898238092660904,-0.2517358660697937,0.013754799962043762,-0.008201241493225098,-0.010134637355804443
2025-09-20T02:18:22Z,-0.0026488751518109273,0.10397861463384837,0.001906741433752781,-0.14754652976989746,-0.33797842264175415,-0.9295163154602051,0.05196708111384883,-0.0012731043597825282,0.0008832560608752728,0.9986476141806477,-0.014495745301246643,-0.08462963253259659,-0.23848679661750793,0.011597231030464172,-0.004380524158477783,-0.010871171951293945
2025-09-20T02:18:22Z,-0.0038158994410271005,0.10372138586320077,-0.0028379523139398753,-0.14749263226985931,-0.3384212255477905,-0.9293637871742249,0.05183459843768919,-0.0019789373987546574,-0.0015159684079305467,0.9986525830307865,-0.01194670144468546,-0.08568191528320312,-0.22214484214782715,0.010018795728683472,-0.0036231279373168945,-0.01324087381362915
2025-09-20T02:18:22Z,-0.0049733211299133355,0.10352303844876776,-0.007200915537451494,-0.1475183367729187,-0.3388591408729553,-0.9292001128196716,0.051728971362473675,-0.002669592382358386,-0.003724271517899606,0.9986506639872382,-0.006576266605407,-0.08448168635368347,-0.20835049450397491,0.010190889239311218,-0.005725383758544922,-0.01344829797744751
2025-09-20T02:18:22Z,-0.0062864285576542545,0.10350200130401042,-0.011333294878192644,-0.14774112403392792,-0.33942487835884094,-0.9289581775665283,0.05170903081634774,-0.0034320714250367784,-0.005821591818867102,0.9986393223961083,0.002417596522718668,-0.09349203109741211,-0.19671882688999176,0.009086564183235168,-0.007417112588882446,-0.010195255279541016
2025-09-20T02:18:22Z,-0.007855552752733941,0.10358336169533186,-0.015209477717826306,-0.14826065301895142,-0.3400458097457886,-0.9286482930183411,0.05173680341358714,-0.004316065389933633,-0.007797738634580101,0.9986210005036518,0.008304338902235031,-0.09760401397943497,-0.18430525064468384,0.008395522832870483,-0.005181372165679932,-0.010921299457550049
2025-09-20T02:18:22Z,-0.00936015198719767,0.10385030635627986,-0.018668161007004788,-0.14881831407546997,-0.3407774865627289,-0.928290843963623,0.05185536659182714,-0.0051579906759257905,-0.00956415508910818,0.9985955282650486,0.019467396661639214,-0.09266240149736404,-0.15835636854171753,0.009388163685798645,-0.0035664141178131104,-0.012643814086914062
2025-09-20T02:18:22Z,-0.010856227439760417,0.10446353059985948,-0.02176925890091353,-0.14945131540298462,-0.3417784869670868,-0.9278209805488586,0.052145156323358324,-0.0059886086421731015,-0.011152783436513169,0.998559281209567,0.04235202446579933,-0.09428632259368896,-0.1516786813735962,0.011939525604248047,-0.011484593152999878,-0.01179492473602295
2025-09-20T02:18:22Z,-0.012491034649561679,0.10565173562184677,-0.024895063929818696,-0.15020206570625305,-0.34331458806991577,-0.9271323680877686,0.05271855083665002,-0.0068934973421413215,-0.012759348274919202,0.9985041130233538,0.0708749070763588,-0.09792935848236084,-0.16078805923461914,0.012951329350471497,-0.017926275730133057,-0.011522054672241211
2025-09-20T02:18:22Z,-0.014085788404820984,0.10734427426944174,-0.028189980799528443,-0.1508687436580658,-0.3453391194343567,-0.9262718558311462,0.05354058865950037,-0.007788096716182256,-0.014451663080850724,0.998430749517118,0.0938936322927475,-0.103693887591362,-0.16479486227035522,0.01075182855129242,-0.015775710344314575,-0.01167231798171997
2025-09-20T02:18:22Z,-0.015877856902040476,0.10940181654911334,-0.0315118835588981,-0.15170550346374512,-0.34770211577415466,-0.9252505898475647,0.05454023017233629,-0.008787358193890631,-0.016165219515200432,0.9983420829988846,0.11044925451278687,-0.11057241261005402,-0.1655730903148651,0.007899239659309387,-0.012989670038223267,-0.010458052158355713
2025-09-20T02:18:22Z,-0.01776351186926637,0.11181782937628834,-0.03481629867394004,-0.15262599289417267,-0.35039055347442627,-0.9240843057632446,0.055714760818705696,-0.00983909478190634,-0.01787561555606329,0.9982381658675893,0.12284361571073532,-0.11743643879890442,-0.16765254735946655,0.0077568888664245605,-0.012087136507034302,-0.010702073574066162
2025-09-20T02:18:22Z,-0.019774140164272272,0.11444546858796847,-0.038214144762530815,-0.15363194048404694,-0.3532825708389282,-0.9228156208992004,0.056989689067752036,-0.010961567485033623,-0.019639050171286372,0.9981213661651364,0.13351809978485107,-0.1260710209608078,-0.17029906809329987,0.008891969919204712,-0.010199248790740967,-0.009454846382141113
2025-09-20T02:18:22Z,-0.021890058534998657,0.11728934847610617,-0.04163150696221123,-0.1547222137451172,-0.35637161135673523,-0.9214447140693665,0.05836744097017713,-0.012143500695813337,-0.021418571783679896,0.9979914976852183,0.13871009647846222,-0.128133624792099,-0.17547084391117096,0.010704070329666138,-0.011040925979614258,-0.010019183158874512
2025-09-20T02:18:22Z,-0.02410205976654243,0.12015745403599906,-0.04527552782278539,-0.15583787858486176,-0.3595070540904999,-0.9200376272201538,0.059750560716525625,-0.013384929150186638,-0.023316722060589143,0.9978512398499803,0.13845771551132202,-0.13854922354221344,-0.1931782066822052,0.010555148124694824,-0.01314660906791687,-0.008601009845733643
2025-09-20T02:18:22Z,-0.02643574234780297,0.12295874007900671,-0.049426992255799475,-0.15693309903144836,-0.3626411259174347,-0.9186204075813293,0.06109051828320381,-0.014706611703931404,-0.025473982175473007,0.9976987690819624,0.13065433502197266,-0.15002067387104034,-0.2179275006055832,0.010927870869636536,-0.016200095415115356,-0.008488953113555908
2025-09-20T02:18:22Z,-0.029293677785339145,0.12558205853385807,-0.05434727225875537,-0.15831223130226135,-0.3657040596008301,-0.917168378829956,0.06232271928710925,-0.016316801238429164,-0.028032551291785224,0.997528891868678,0.12387281656265259,-0.17615586519241333,-0.24000516533851624,0.006822735071182251,-0.01475900411605835,-0.0057076215744018555
2025-09-20T02:18:22Z,-0.032139526548550436,0.12821937176588485,-0.05926163691966205,-0.1596711277961731,-0.36877021193504333,-0.9157039523124695,0.06355429455939392,-0.01792681935523225,-0.03059082769091592,0.9973483564921531,0.11709129810333252,-0.20229104161262512,-0.2620828449726105,0.002697363495826721,-0.013314634561538696,-0.002938687801361084
2025-09-20T02:18:22Z,-0.03543713973196352,0.13064030938837165,-0.06433984042319714,-0.16139456629753113,-0.37164947390556335,-0.9142365455627441,0.06466103599790043,-0.019769867773698897,-0.03324663621189858,0.9971573854135973,0.10522838681936264,-0.1995580792427063,-0.2591104805469513,0.008564770221710205,-0.015237689018249512,-0.009285986423492432
2025-09-20T02:18:22Z,-0.03859689382938403,0.13295046008361144,-0.07018447669399103,-0.1627906709909439,-0.3745148777961731,-0.9128186106681824,0.06569747853848325,-0.021572909487632744,-0.036282084076105975,0.9969463105687133,0.10229559242725372,-0.21392756700515747,-0.32755422592163086,0.01085992157459259,-0.037644147872924805,-0.010315656661987305
2025-09-20T02:18:22Z,-0.04201808882138215,0.1352318994932693,-0.07756716092525157,-0.16402782499790192,-0.37753477692604065,-0.9113519191741943,0.06668605443998386,-0.02356289066767994,-0.040095013802480706,0.9966895565058442,0.09547895938158035,-0.22598198056221008,-0.4024898111820221,0.010432347655296326,-0.038711607456207275,-0.009975433349609375
2025-09-20T02:18:22Z,-0.04554181787108149,0.13742915753408916,-0.08624977018520742,-0.16501696407794952,-0.3806205987930298,-0.9098886251449585,0.06759961494256123,-0.02565338335452636,-0.044560506913460474,0.996386677355001,0.08678356558084488,-0.24690774083137512,-0.4560700058937073,0.007135853171348572,-0.02847510576248169,-0.009696781635284424
2025-09-20T02:18:22Z,-0.04936136584840385,0.13943884555897035,-0.09569735868630815,-0.16606691479682922,-0.3836052119731903,-0.9084430932998657,0.06838453645922087,-0.027921044032292983,-0.04941688298463784,0.9960430655884478,0.07069042325019836,-0.25660043954849243,-0.4773814082145691,0.00523628294467926,-0.014964252710342407,-0.013027369976043701
2025-09-20T02:18:22Z,-0.053051592662987174,0.14117758547274645,-0.10535924046966251,-0.16693098843097687,-0.38634270429611206,-0.9071236848831177,0.0690144852376336,-0.03013241186983557,-0.05437370575570293,0.9956769171527743,0.05281530320644379,-0.2528010308742523,-0.48061904311180115,0.0071242451667785645,-0.005762547254562378,-0.020013868808746338
2025-09-20T02:18:23Z,-0.056474910709642986,0.14263554626839772,-0.11488194008874221,-0.16757628321647644,-0.3887823224067688,-0.9059616327285767,0.06949469087016796,-0.03220469472933352,-0.059249164413134756,0.9953003806371437,0.03594449162483215,-0.22657926380634308,-0.4692443907260895,0.013055190443992615,-0.0013593435287475586,-0.02551722526550293
2025-09-20T02:18:23Z,-0.059453359650934685,0.143813055021874,-0.12422046148196596,-0.16785620152950287,-0.3909209370613098,-0.9049890041351318,0.06983426303005352,-0.03404577804836262,-0.06401382464313704,0.9949202023211617,0.030734913423657417,-0.20692665874958038,-0.4612542986869812,0.013699814677238464,-0.0017632246017456055,-0.02395331859588623
2025-09-20T02:18:23Z,-0.062016169040276764,0.14499835849177967,-0.13341711320362754,-0.1677824854850769,-0.39302802085876465,-0.904089629650116,0.07017862319568219,-0.035679075271164706,-0.06869276446600907,0.994526612549071,0.031653113663196564,-0.19105377793312073,-0.44891518354415894,0.011175602674484253,-0.0008793771266937256,-0.018465161323547363
2025-09-20T02:18:23Z,-0.06455177785965396,0.1462008507287008,-0.14208006841450316,-0.16780880093574524,-0.39507076144218445,-0.9031939506530762,0.07052874552863175,-0.037284297111821116,-0.07310479301810749,0.9941283616597656,0.03809577226638794,-0.19159212708473206,-0.4091460704803467,0.005799129605293274,0.008250802755355835,-0.013052284717559814
2025-09-20T02:18:23Z,-0.06710836650335905,0.14747587938254375,-0.1498533291762626,-0.16807116568088531,-0.39706531167030334,-0.9022700190544128,0.07091863080874333,-0.03887452095999897,-0.07707571926094921,0.9937397033479408,0.04293311387300491,-0.18219180405139923,-0.35910043120384216,0.006276577711105347,0.011266767978668213,-0.016379058361053467
2025-09-20T02:18:23Z,-0.06954271750648376,0.14876069361383068,-0.15674597130732643,-0.16844192147254944,-0.398960679769516,-0.9013643264770508,0.07132462275247832,-0.04037637338414433,-0.08060458094064424,0.9933707388477758,0.04355917498469353,-0.16211140155792236,-0.3260841369628906,0.010809078812599182,0.007287710905075073,-0.023010194301605225
2025-09-20T02:18:23Z,-0.07166528633572679,0.14995916635528223,-0.16307989811306753,-0.16867153346538544,-0.40070703625679016,-0.9005463719367981,0.07170280214301063,-0.041703047621141714,-0.08384335197195977,0.9930205401044905,0.03470519557595253,-0.143735870718956,-0.30225670337677,0.013686731457710266,0.004878699779510498,-0.0257529616355896
2025-09-20T02:18:23Z,-0.07338884487189028,0.15085825926473026,-0.16866410195025133,-0.16873988509178162,-0.40209412574768066,-0.8999150991439819,0.07195789867006133,-0.042795128237351064,-0.08669083777825015,0.9927110912774219,0.032751813530921936,-0.14172306656837463,-0.28952667117118835,0.010349869728088379,-0.0005661249160766602,-0.018833518028259277
2025-09-20T02:18:23Z,-0.07510750416151304,0.15176680798271958,-0.1742475117388549,-0.16879884898662567,-0.40348124504089355,-0.8992829918861389,0.07221229287083714,-0.0438867870874646,-0.08953750746148371,0.9923922520939814,0.030798429623246193,-0.13971026241779327,-0.2767966389656067,0.007003664970397949,-0.006010949611663818,-0.01191490888595581
2025-09-20T02:18:23Z,-0.07693938054632447,0.15265994705263505,-0.1797421910673015,-0.1689784675836563,-0.40483707189559937,-0.8986396789550781,0.07245017922205821,-0.04503236871379418,-0.0923436080178547,0.9920663976271371,0.030310630798339844,-0.13996638357639313,-0.27361351251602173,0.006874963641166687,-0.006808251142501831,-0.012294173240661621
2025-09-20T02:18:23Z,-0.07885898475634881,0.15361362987999425,-0.18524301601979806,-0.16922849416732788,-0.40624019503593445,-0.8979591727256775,0.07270793594579217,-0.046225892834997354,-0.09515651265488649,0.9917267648673526,0.02742050588130951,-0.1445290446281433,-0.27056097984313965,0.0073698461055755615,-0.005197674036026001,-0.01320040225982666
2025-09-20T02:18:23Z,-0.08076841241353386,0.1544431448099797,-0.19075149445752534,-0.16946645081043243,-0.40752291679382324,-0.8973327875137329,0.07289829644791752,-0.04741058368189338,-0.09797044145560989,0.9913827308192463,0.01523516234010458,-0.13472117483615875,-0.2728622853755951,0.012273907661437988,-0.006470829248428345,-0.01844733953475952
2025-09-20T02:18:23Z,-0.0824267010330846,0.15504009367814156,-0.19652856125890894,-0.16941146552562714,-0.4086114764213562,-0.8968480229377747,0.07297340226320834,-0.04847092334141042,-0.10090390592824407,0.9910316411140828,-0.0018436452373862267,-0.12919163703918457,-0.2983131408691406,0.01439511775970459,-0.012790322303771973,-0.018090486526489258
2025-09-20T02:18:23Z,-0.08395835187255403,0.1552844036367648,-0.2027932133000123,-0.1691219061613083,-0.4094160795211792,-0.8965356945991516,0.07286264182820491,-0.04946988210784171,-0.10406750840747742,0.9906631762841893,-0.021686960011720657,-0.1296101063489914,-0.3158548176288605,0.011812925338745117,-0.009823262691497803,-0.013963401317596436
2025-09-20T02:18:23Z,-0.08566735111307251,0.15521140140507148,-0.2092222300428574,-0.1689547896385193,-0.40993732213974,-0.8963289856910706,0.07257539896512873,-0.05054638002665644,-0.10731229092798814,0.9902836859172114,-0.037258081138134,-0.14056488871574402,-0.31062957644462585,0.0075044184923172,-0.00283658504486084,-0.009669661521911621
2025-09-20T02:18:23Z,-0.08754302086759141,0.15481786862414854,-0.21536662303822213,-0.16902025043964386,-0.410131573677063,-0.8962277770042419,0.07212131783777832,-0.05167709225688546,-0.11041509619436526,0.9899173426651696,-0.05413499101996422,-0.13962271809577942,-0.2907896041870117,0.00863736867904663,0.001698315143585205,-0.01295018196105957
2025-09-20T02:18:23Z,-0.08926806928287566,0.1540474507666147,-0.22126740637112996,-0.16902630031108856,-0.4099525213241577,-0.8963085412979126,0.07148927739629687,-0.05270213504402735,-0.11338353675800006,0.9895735136092683,-0.07264849543571472,-0.12644658982753754,-0.27647799253463745,0.013523444533348083,-0.0005575418472290039,-0.019101858139038086
2025-09-20T02:18:23Z,-0.09026431835935976,0.15254304271753993,-0.22650212687601953,-0.16858141124248505,-0.4090403616428375,-0.896808922290802,0.07054858903476997,-0.053299755259940955,-0.11598162710281583,0.9893078718575476,-0.08755827695131302,-0.10453026741743088,-0.2508314251899719,0.01363721489906311,0.0012557804584503174,-0.020040810108184814
2025-09-20T02:18:23Z,-0.09126829865761796,0.15104384902951237,-0.2317372135667827,-0.16814203560352325,-0.408125102519989,-0.8973082900047302,0.06960734340843695,-0.05389694633623094,-0.1185787976445826,0.9890343581020437,-0.10246805846691132,-0.08261394500732422,-0.2251848429441452,0.013756483793258667,0.0030659735202789307,-0.0209808349609375
2025-09-20T02:18:23Z,-0.09227996868306478,0.1495497650280562,-0.2369726133572412,-0.1677081435918808,-0.4072065055370331,-0.897806704044342,0.06866549008706072,-0.05449369940226186,-0.12117501089009237,0.9887527826169035,-0.11737784743309021,-0.06069762259721756,-0.1995382457971573,0.013881221413612366,0.0048728883266448975,-0.021921753883361816
2025-09-20T02:18:23Z,-0.09264487589578876,0.1475358158820471,-0.24115817677856563,-0.16699253022670746,-0.40572065114974976,-0.898612380027771,0.06753255408115169,-0.05470040694318355,-0.12321930677023772,0.9885667483872325,-0.1295350044965744,-0.0338091216981411,-0.17056280374526978,0.014161229133605957,0.00249519944190979,-0.022188007831573486
2025-09-20T02:18:23Z,-0.09276468796893061,0.14515527942081216,-0.24458510403736541,-0.1662723273038864,-0.4038330912590027,-0.8995956778526306,0.06625380314347366,-0.05473460113612216,-0.12487301511380042,0.9884438500716337,-0.14081698656082153,-0.02190317027270794,-0.13982489705085754,0.011685624718666077,0.002835094928741455,-0.01802724599838257
2025-09-20T02:18:23Z,-0.09265298422871021,0.14218338038577466,-0.2469066721176645,-0.16566073894500732,-0.4013117849826813,-0.9008359313011169,0.064727395887418,-0.054578863483648266,-0.12596161168291953,0.9884154423966032,-0.15962588787078857,-0.01063478086143732,-0.09416619688272476,0.010937198996543884,0.007101297378540039,-0.01966303586959839
2025-09-20T02:18:23Z,-0.0925483107947021,0.13921121526021177,-0.24922692389249324,-0.1650545299053192,-0.3987852931022644,-0.9020683169364929,0.06320075019011143,-0.054422939903121505,-0.12704976151704922,0.9883835286801252,-0.17843478918075562,0.0006336085498332977,-0.04850749671459198,0.010194152593612671,0.011362344026565552,-0.02130669355392456
2025-09-20T02:18:23Z,-0.09199053251668975,0.13539619716185014,-0.25028503316784545,-0.16440683603286743,-0.395382285118103,-0.9036831259727478,0.06132063592404555,-0.053949428093414596,-0.1274845273565417,0.9884719574302402,-0.2127477526664734,0.03837575763463974,-0.003519836813211441,0.015484482049942017,0.010716468095779419,-0.026694297790527344
2025-09-20T02:18:23Z,-0.0909619637497264,0.1308250366093717,-0.25032645613805404,-0.1636294424533844,-0.3911990225315094,-0.9056426882743835,0.05912388162269563,-0.05316479559736665,-0.1273895307410284,0.9886605322151905,-0.24241849780082703,0.06420806795358658,0.04280634596943855,0.013816490769386292,0.008722156286239624,-0.023295819759368896
2025-09-20T02:18:23Z,-0.08961516285974781,0.12559250998593194,-0.2494680078850428,-0.16282176971435547,-0.3863278925418854,-0.9078765511512756,0.056643241282846396,-0.052156550165663874,-0.1268300904515976,0.9889313888508069,-0.2663912773132324,0.07321381568908691,0.08759678900241852,0.010231733322143555,0.00836724042892456,-0.019166231155395508
2025-09-20T02:18:23Z,-0.08821275647182755,0.11985423401705972,-0.2476775647050771,-0.16222208738327026,-0.3809049427509308,-0.9102721810340881,0.05393820899459469,-0.051066594159692856,-0.12580135716739244,0.9892708395196456,-0.28504425287246704,0.09268578886985779,0.142438605427742,0.007692590355873108,0.010637938976287842,-0.021386325359344482
2025-09-20T02:18:23Z,-0.0865564823773086,0.1137952916166111,-0.24468767130423064,-0.16171272099018097,-0.375074565410614,-0.9127804040908813,0.05111760713682105,-0.049805335849242356,-0.12416923158769402,0.989691023268216,-0.2898778021335602,0.1036609634757042,0.20184025168418884,0.006439879536628723,0.011148929595947266,-0.01813429594039917
2025-09-20T02:18:23Z,-0.08476861997591571,0.1076287225258457,-0.2406721944036047,-0.16134873032569885,-0.3690432906150818,-0.9152997732162476,0.04827228246902566,-0.048455589115827744,-0.12202707150779898,0.9901671988144047,-0.2820925712585449,0.11490113288164139,0.2460062950849533,0.006926700472831726,0.005182534456253052,-0.015983521938323975
2025-09-20T02:18:23Z,-0.08277840134940555,0.10176753200721474,-0.23586607621483208,-0.16098782420158386,-0.3632102310657501,-0.9176934361457825,0.045603112744764765,-0.04701606410183423,-0.11949685067683287,0.9906716106775462,-0.25859060883522034,0.13189245760440826,0.2780473232269287,0.008083298802375793,-0.0036516785621643066,-0.01516050100326538
2025-09-20T02:18:23Z,-0.08063210370098592,0.09645109458644746,-0.23041900938806217,-0.1606246381998062,-0.35780981183052063,-0.919875979423523,0.04322048656663954,-0.045528496589939835,-0.11665796208202721,0.9911861625384086,-0.22346335649490356,0.13361100852489471,0.30839547514915466,0.006608635187149048,-0.00619235634803772,-0.011374950408935547
2025-09-20T02:18:23Z,-0.07855224500038037,0.09191554971376478,-0.2241579432541552,-0.16050396859645844,-0.3530474007129669,-0.9217353463172913,0.04123109137268895,-0.04411281398067334,-0.11343284364213191,0.9917090904283432,-0.1824289709329605,0.13181376457214355,0.349237322807312,0.006860062479972839,-0.002087146043777466,-0.00998765230178833
2025-09-20T02:18:23Z,-0.07649173337253519,0.0880061718850911,-0.2168645004838038,-0.16064612567424774,-0.34875914454460144,-0.923341691493988,0.039564612172229736,-0.04273217819151613,-0.10970818408906677,0.9922563327458626,-0.1479269117116928,0.1383170336484909,0.4062323272228241,0.008695125579833984,0.0045011937618255615,-0.01254492998123169
2025-09-20T02:18:23Z,-0.07423807633596743,0.08466450817484296,-0.20857327649332866,-0.1608470380306244,-0.3448902368545532,-0.9247588515281677,0.0382010424549883,-0.04127817270534258,-0.10549478392099011,0.9928280584145318,-0.12332884222269058,0.15596385300159454,0.4409124255180359,0.013343095779418945,0.0025580525398254395,-0.01671421527862549
2025-09-20T02:18:23Z,-0.0718470401057773,0.081763713080898,-0.19960822584038293,-0.16107472777366638,-0.3413480818271637,-0.9260326027870178,0.037065244438269015,-0.03977685472432154,-0.1009516201458749,0.9934045522986414,-0.10511048883199692,0.161468505859375,0.4677679240703583,0.00935390591621399,0.0020654797554016113,-0.014919817447662354
2025-09-20T02:18:23Z,-0.06932656313908415,0.07923549252888076,-0.19003870047552038,-0.1613190621137619,-0.3380720913410187,-0.9271911382675171,0.03611954286162244,-0.03822848805078447,-0.09611149474980227,0.993980105945623,-0.08590422570705414,0.15958502888679504,0.5004072189331055,0.005687624216079712,0.005598992109298706,-0.011503517627716064
2025-09-20T02:18:23Z,-0.06688533741588143,0.07702018502753594,-0.17967407679990458,-0.16182391345500946,-0.33498403429985046,-0.9282234311103821,0.035326308377279424,-0.03672910456838047,-0.09088173334749741,0.9945569290388745,-0.06629420071840286,0.1598713994026184,0.5462127327919006,0.004992544651031494,0.008083701133728027,-0.010912716388702393
2025-09-20T02:18:23Z,-0.06438799332682107,0.07519018066415878,-0.16830707805235948,-0.1625145524740219,-0.3321250379085541,-0.9291297197341919,0.03473015311245283,-0.03520950753304314,-0.08515688892071702,0.9951394035114594,-0.04612579569220543,0.17498666048049927,0.5920116901397705,0.0073861777782440186,0.006217628717422485,-0.015697360038757324
2025-09-20T02:18:23Z,-0.061622027595315446,0.07365409238610351,-0.15613497500233844,-0.16314129531383514,-0.32942214608192444,-0.9299817085266113,0.034288273245350234,-0.03356155011864301,-0.07902913016935474,0.995717035299296,-0.0305265411734581,0.19381675124168396,0.623859703540802,0.009934991598129272,0.0020981431007385254,-0.02017265558242798
2025-09-20T02:18:23Z,-0.05849686963435338,0.07240070499631421,-0.14344952650421153,-0.16354148089885712,-0.3268895149230957,-0.9308047294616699,0.03398958335813535,-0.031742522540593045,-0.0726413972038086,0.9962732709022515,-0.01606571301817894,0.21134713292121887,0.6403020620346069,0.011724323034286499,-0.003192722797393799,-0.02221202850341797
2025-09-20T02:18:23Z,-0.05503474145723437,0.07153264350233376,-0.13048349151530186,-0.16367173194885254,-0.3246452212333679,-0.9315670132637024,0.03387647598677456,-0.029768224563732886,-0.06611087553649898,0.9967926991321535,0.0006570611149072647,0.22192580997943878,0.6551780104637146,0.009262144565582275,-0.003919124603271484,-0.020029008388519287
2025-09-20T02:18:23Z,-0.051489771133762574,0.07100276520506667,-0.11710880336115187,-0.16380120813846588,-0.3226280212402344,-0.9322447776794434,0.033915855754359674,-0.027758183436069856,-0.05937681548385128,0.9972730285205,0.016749180853366852,0.2243172824382782,0.6753971576690674,0.00736081600189209,-0.0009604990482330322,-0.018697261810302734
2025-09-20T02:18:23Z,-0.04771127281513511,0.07080618757083193,-0.10326890342465124,-0.1638023853302002,-0.320823073387146,-0.9328672885894775,0.034108130017276625,-0.02563296182390845,-0.05240767618292326,0.9977138849094875,0.031111057847738266,0.2468184530735016,0.6991035342216492,0.00876455008983612,-0.0006704330444335938,-0.02246028184890747
2025-09-20T02:18:23Z,-0.043619869514575485,0.0709214778166149,-0.08908335431967825,-0.1635691374540329,-0.3192204236984253,-0.9334577918052673,0.03443927865318756,-0.023351131779874676,-0.04526078106251272,0.9981082704482573,0.04549982026219368,0.26663532853126526,0.7080315947532654,0.010842844843864441,-0.005995392799377441,-0.022014200687408447
2025-09-20T02:18:23Z,-0.039109146584696,0.071368386039007,-0.07499532336069388,-0.16288898885250092,-0.3178911507129669,-0.9340301752090454,0.03491215955276822,-0.02086436338336579,-0.038154952309641596,0.9984438030120181,0.05664625018835068,0.2793629467487335,0.6907132267951965,0.01231299340724945,-0.015379846096038818,-0.019115447998046875
2025-09-20T02:18:23Z,-0.03442466295356052,0.07211876132142336,-0.0613801263871776,-0.1618988811969757,-0.3168587386608124,-0.9345529675483704,0.03550145664475271,-0.0182982804467211,-0.03128096422887326,0.9987123378787005,0.06729114055633545,0.28098058700561523,0.6651055812835693,0.010630205273628235,-0.018399745225906372,-0.0142289400100708
2025-09-20T02:18:23Z,-0.029930604003147312,0.07310724009102516,-0.048220051199527256,-0.1609470099210739,-0.3160644471645355,-0.9349862933158875,0.036170243469662716,-0.015831328917133472,-0.024635622722518794,0.9989164979166446,0.0739290714263916,0.2625107169151306,0.6410384774208069,0.005745843052864075,-0.017397254705429077,-0.0073702335357666016
2025-09-20T02:18:23Z,-0.025815967952629314,0.07427105205191932,-0.03549804427771006,-0.16021773219108582,-0.31545162200927734,-0.9353184103965759,0.0368891244145937,-0.013555573534381277,-0.018213522829670183,0.9990613813749741,0.07796910405158997,0.2404942363500595,0.6233112812042236,0.004729345440864563,-0.016758471727371216,-0.003836512565612793
2025-09-20T02:18:23Z,-0.022135353685694737,0.07552131221393218,-0.023209861935258338,-0.15976639091968536,-0.3149404227733612,-0.9355678558349609,0.03761848954104528,-0.011496886773581043,-0.012013475683598366,0.9991537347157639,0.07297530025243759,0.2216617614030838,0.5920507907867432,0.008182719349861145,-0.02108633518218994,-0.005002200603485107
2025-09-20T02:18:24Z,-0.01871505299971171,0.0766958733647328,-0.011782677504320648,-0.15933044254779816,-0.3144432604312897,-0.9358094334602356,0.0382811107982536,-0.009576203046477718,-0.006245458630568157,0.9992015319676015,0.06476221233606339,0.2057981938123703,0.540991485118866,0.012253403663635254,-0.02877277135848999,-0.00657808780670166
2025-09-20T02:18:24Z,-0.0156391950425395,0.07777465433919216,-0.0015044928395129443,-0.15892311930656433,-0.3139899969100952,-0.9360308051109314,0.03887045284456369,-0.007842849198391786,-0.0010556582287687853,0.9992128358655781,0.058204349130392075,0.1802901029586792,0.48098480701446533,0.011023536324501038,-0.0337851345539093,-0.0034931302070617676
2025-09-20T02:18:24Z,-0.013420627429179181,0.07878845625738679,0.00700200132763135,-0.158880352973938,-0.31370916962623596,-0.9361322522163391,0.03940638919575534,-0.006567136457613196,0.003233923067472733,0.9991963686493018,0.056307077407836914,0.14709791541099548,0.42806360125541687,0.010445728898048401,-0.03448161482810974,-0.0031465888023376465
2025-09-20T02:18:24Z,-0.011210622431864836,0.07982097947949675,0.015506922445505299,-0.15883494913578033,-0.3134287893772125,-0.9362338781356812,0.03994149581755347,-0.0052912957438770005,0.0075234444602053484,0.9991596538240292,0.05440980941057205,0.11390572786331177,0.3751423954963684,0.009865283966064453,-0.0351775586605072,-0.002799808979034424
2025-09-20T02:18:24Z,-0.0097410198630992,0.08080459506049172,0.022747365393142278,-0.159173384308815,-0.3132745623588562,-0.9362280368804932,0.040443564457403616,-0.004406818763450684,0.011167308586557019,0.9991096907352734,0.050839293748140335,0.08977412432432175,0.3333508372306824,0.009979814291000366,-0.03167763352394104,-0.004174590110778809
2025-09-20T02:18:24Z,-0.008614851486320262,0.08178061688862007,0.02908251519254958,-0.1596125364303589,-0.3132375478744507,-0.9361656308174133,0.04093679430041349,-0.0037089525283629356,0.01435239219685708,0.9990517623082358,0.046796225011348724,0.0720299705862999,0.29666414856910706,0.010900124907493591,-0.028709083795547485,-0.0063700079917907715
2025-09-20T02:18:24Z,-0.007799986878226789,0.08271365450433271,0.03475347881599093,-0.16018155217170715,-0.31325194239616394,-0.9360636472702026,0.04140618948738354,-0.0031776601242472302,0.017199654365025276,0.9989893079130302,0.043561264872550964,0.05540302395820618,0.268043577671051,0.011502236127853394,-0.026412010192871094,-0.007333278656005859
2025-09-20T02:18:24Z,-0.007236223023029718,0.08362669755825596,0.03997885265249447,-0.16087670624256134,-0.31330832839012146,-0.9359255433082581,0.04186479726680131,-0.002778698813572862,0.019819283263590344,0.9989228170336788,0.0415911003947258,0.04156787693500519,0.24942587316036224,0.011090829968452454,-0.022673875093460083,-0.006620168685913086
2025-09-20T02:18:24Z,-0.006925270746519002,0.08441926976557322,0.044931293910756454,-0.16174106299877167,-0.3132876455783844,-0.9357834458351135,0.04226391473922599,-0.002510771532956131,0.022297537928728302,0.9988545012670912,0.03856309503316879,0.030103225260972977,0.24378839135169983,0.010868698358535767,-0.017528414726257324,-0.0064043402671813965
2025-09-20T02:18:24Z,-0.006754752551831703,0.08520728388893366,0.04974426039813361,-0.16270069777965546,-0.31327858567237854,-0.935620129108429,0.042661255356471486,-0.002314054027998273,0.024703056638644333,0.9987814963137059,0.03738723695278168,0.02138984389603138,0.23563465476036072,0.009895265102386475,-0.017002344131469727,-0.008815228939056396
2025-09-20T02:18:24Z,-0.006750296858545939,0.08597798018752151,0.05451628118389885,-0.16380265355110168,-0.31325429677963257,-0.935435950756073,0.04305144297814747,-0.002199483832516317,0.02708443342262949,0.998703283863291,0.035504937171936035,0.023787545040249825,0.23100705444812775,0.011877328157424927,-0.01653549075126648,-0.011442601680755615
2025-09-20T02:18:24Z,-0.006630692472604265,0.08676693238224395,0.05911734302101547,-0.16475380957126617,-0.3132687509059906,-0.9352640509605408,0.04344856511786871,-0.0020290121650082217,0.029382673430902114,0.9986214493898362,0.03691588342189789,0.021128572523593903,0.22711363434791565,0.012984544038772583,-0.01602393388748169,-0.011355400085449219
2025-09-20T02:18:24Z,-0.006605475210093638,0.08744324791475294,0.06370042334159774,-0.165786013007164,-0.31317567825317383,-0.9351128339767456,0.04379036239108986,-0.001906045547883891,0.03166993828625645,0.9985368685356908,0.030131706967949867,0.022590970620512962,0.22507581114768982,0.012460976839065552,-0.013597965240478516,-0.012632369995117188
2025-09-20T02:18:24Z,-0.0064924371057141165,0.08797185556512663,0.06821357990456851,-0.16671700775623322,-0.31295064091682434,-0.9350226521492004,0.044056528520442256,-0.00174175053816032,0.033924355835143784,0.9984514012196446,0.02020975947380066,0.027361959218978882,0.22319452464580536,0.011388584971427917,-0.011730700731277466,-0.014309585094451904
2025-09-20T02:18:24Z,-0.006227770487264102,0.08831240042056251,0.0726698448782994,-0.16749033331871033,-0.3125540316104889,-0.9350171089172363,0.0442255118224966,-0.0015052615811594692,0.036153982333307605,0.998366003670179,0.01696963422000408,0.03216055780649185,0.2170637845993042,0.01186467707157135,-0.015129029750823975,-0.01400846242904663
2025-09-20T02:18:24Z,-0.006002307578235984,0.08870605287145165,0.07689670755950709,-0.16824470460414886,-0.31223979592323303,-0.9349866509437561,0.04442076621835245,-0.0012916678758455335,0.0382679389385457,0.9982788526839581,0.02534731850028038,0.03292818367481232,0.20082607865333557,0.011025190353393555,-0.021666675806045532,-0.013778269290924072
2025-09-20T02:18:24Z,-0.005662601870788638,0.0893065863937445,0.08081840852733302,-0.16881956160068512,-0.3121648132801056,-0.9349080324172974,0.044716104363724654,-0.0010228594204491036,0.04023149802997146,0.9981887294639071,0.034355003386735916,0.03392844647169113,0.1847805380821228,0.010202422738075256,-0.023274391889572144,-0.011713385581970215
2025-09-20T02:18:24Z,-0.005193375184078952,0.0899750030410681,0.08416157736914294,-0.1691395342350006,-0.31224456429481506,-0.9348235726356506,0.04504149327126819,-0.0006998547368996633,0.0419089908857674,0.9981053830791079,0.03068954311311245,0.041302215307950974,0.16430097818374634,0.009820044040679932,-0.02333599328994751,-0.013393521308898926
2025-09-20T02:18:24Z,-0.004726346206157987,0.09064501069177444,0.08750463236779758,-0.16945981979370117,-0.3123232126235962,-0.9347392916679382,0.04536676122152686,-0.00037683714932309635,0.04358635632040845,0.9980190132224258,0.027024082839488983,0.048675984144210815,0.14382141828536987,0.009437978267669678,-0.023398667573928833,-0.01507347822189331
2025-09-20T02:18:24Z,-0.004047053373442977,0.0911519723911496,0.0901306592986378,-0.16941817104816437,-0.3123650848865509,-0.9347328543663025,0.045604925479537796,3.31149624929386e-05,0.04491110606190733,0.9979494971547042,0.021083876490592957,0.051818475127220154,0.10975007712841034,0.011508792638778687,-0.02753385901451111,-0.014318108558654785
2025-09-20T02:18:24Z,-0.003417735357125796,0.09143067315035212,0.09142473651013659,-0.1691218763589859,-0.3124121129512787,-0.9347708225250244,0.04572961801695051,0.0003829998572488902,0.04557062949083707,0.997913785768071,0.012861405499279499,0.033112455159425735,0.06677114963531494,0.008570954203605652,-0.02694597840309143,-0.01047450304031372
2025-09-20T02:18:24Z,-0.0027887548336783985,0.09171018371864266,0.09271867697795323,-0.16882561147212982,-0.3124595582485199,-0.9348084926605225,0.04585428235489826,0.0007328890818004026,0.046230128953910064,0.9978775292930461,0.0046389345079660416,0.014406433328986168,0.02379222959280014,0.005633145570755005,-0.026357680559158325,-0.006631135940551758
2025-09-20T02:18:24Z,-0.002713624980961588,0.09173376093255864,0.09294311628060731,-0.16880598664283752,-0.31244444847106934,-0.9348170757293701,0.045864221481111266,0.0007760675240131124,0.04634379061895284,0.997871787750501,-0.006706844083964825,-0.012032253667712212,-0.008376263082027435,0.003743216395378113,-0.0230008065700531,-0.002718210220336914
2025-09-20T02:18:24Z,-0.003134018953817445,0.09152556550594894,0.09252194971634659,-0.16910415887832642,-0.31231942772865295,-0.9348049759864807,0.04577020445579781,0.0005518413331735155,0.04612439732968778,0.9978863929335745,-0.018053606152534485,-0.03288641944527626,-0.03657989203929901,0.0048023611307144165,-0.021255195140838623,-0.003580451011657715
2025-09-20T02:18:24Z,-0.003736440205607539,0.09106364587678581,0.09153854404391809,-0.1694459170103073,-0.3120500147342682,-0.9348331093788147,0.04555373546544947,0.00021817911958288435,0.04562085056884446,0.9979196130845475,-0.02791721560060978,-0.041135963052511215,-0.05762266740202904,0.005191251635551453,-0.020172417163848877,-0.006519615650177002
2025-09-20T02:18:24Z,-0.004509960049726014,0.09050250198985836,0.09015939182347678,-0.16985827684402466,-0.3117527663707733,-0.9348574280738831,0.045291251972572416,-0.00021186066740927484,0.04491627994995907,0.9979635592806531,-0.033605631440877914,-0.0482742041349411,-0.07475565373897552,0.004729911684989929,-0.02048453688621521,-0.005677461624145508
2025-09-20T02:18:24Z,-0.005463530985134513,0.08980697482583656,0.08842702672816975,-0.1703590452671051,-0.3113873600959778,-0.9348880648612976,0.044964986734520616,-0.0007423214757526225,0.04403189088569427,0.9980173656163612,-0.041820988059043884,-0.0597030371427536,-0.09777985513210297,0.003927156329154968,-0.022548288106918335,-0.006864070892333984
2025-09-20T02:18:24Z,-0.0064881134114926015,0.0888838939201548,0.0862509201920792,-0.17082585394382477,-0.31088101863861084,-0.9349713921546936,0.04452550234793505,-0.0013224898114055066,0.04292531237598569,0.9980846530345329,-0.0518217571079731,-0.06128600239753723,-0.117807537317276,0.005973890423774719,-0.022509783506393433,-0.011506497859954834
2025-09-20T02:18:24Z,-0.00745048972460179,0.08783216876575302,0.08359019853239297,-0.17112432420253754,-0.3103322684764862,-0.9350991249084473,0.044018831481098315,-0.001884054013414275,0.04157895877292812,0.9981632099999689,-0.06154482811689377,-0.06487633287906647,-0.14155250787734985,0.005956560373306274,-0.023961544036865234,-0.014394581317901611
2025-09-20T02:18:24Z,-0.008482027563961556,0.08654966040169583,0.08040664116919718,-0.17136834561824799,-0.30965062975883484,-0.9352803826332092,0.043396278706231445,-0.0024948420474487465,0.03997118136037037,0.9982548276018584,-0.07043735682964325,-0.06643542647361755,-0.1726345419883728,0.007568731904029846,-0.025560647249221802,-0.015681564807891846
2025-09-20T02:18:24Z,-0.009445817204113345,0.08517868378197854,0.07660347170758275,-0.17140676081180573,-0.30898383259773254,-0.9354938268661499,0.042725453701707376,-0.003084811898857879,0.038056285365394044,0.9983570178210281,-0.07261554896831512,-0.06098237261176109,-0.2020602524280548,0.0064879655838012695,-0.02742701768875122,-0.014725565910339355
2025-09-20T02:18:24Z,-0.010447179567692927,0.0838703782081966,0.07223423427169852,-0.17134873569011688,-0.3084631860256195,-0.9356762766838074,0.042083441213229905,-0.0037017857170918295,0.03585818386083504,0.9984635475223009,-0.06925100833177567,-0.07559128850698471,-0.22909428179264069,0.003689885139465332,-0.027969807386398315,-0.006212413311004639
2025-09-20T02:18:24Z,-0.011541532392425937,0.08264101844845013,0.06682782186877714,-0.17113660275936127,-0.3081777095794678,-0.9358091354370117,0.04147762912507932,-0.00438258287920645,0.03314037361756675,0.9985800360163879,-0.0677206963300705,-0.07817419618368149,-0.2722013294696808,0.007224753499031067,-0.03142136335372925,-0.009164094924926758
2025-09-20T02:18:24Z,-0.012642469125985475,0.08141756042044862,0.06142060916276946,-0.17092624306678772,-0.3078908920288086,-0.9359419941902161,0.04087147035756717,-0.005063365027398873,0.03042229065930372,0.9986882960094542,-0.06619038432836533,-0.08075711131095886,-0.3153083622455597,0.010761380195617676,-0.03487423062324524,-0.012115776538848877
2025-09-20T02:18:24Z,-0.013787531052012929,0.08021223578632991,0.054682707273704376,-0.17044468224048615,-0.3078232407569885,-0.9360520839691162,0.04026773818636027,-0.005789494035801752,0.02703901263122061,0.9988062055304168,-0.06750614196062088,-0.0845675840973854,-0.35813483595848083,0.007807061076164246,-0.030726641416549683,-0.011503219604492188
2025-09-20T02:18:24Z,-0.014913997063412373,0.07900153545038648,0.04713891375716775,-0.1697513610124588,-0.3078650236129761,-0.9361643195152283,0.03965403487542569,-0.006518385849018545,0.023253841433730084,0.9989215272017811,-0.0698557198047638,-0.09175215661525726,-0.38501718640327454,0.006724148988723755,-0.023277252912521362,-0.009112358093261719
2025-09-20T02:18:24Z,-0.016226620731286962,0.07774481059444031,0.03916234051703395,-0.1691228598356247,-0.3079165816307068,-0.9362611174583435,0.039012624978686024,-0.00734463654761666,0.019249243786225004,0.9990262568905245,-0.07177340239286423,-0.09884631633758545,-0.4049243927001953,0.005811750888824463,-0.01822522282600403,-0.009923219680786133
2025-09-20T02:18:24Z,-0.01756381629715438,0.07638374032489212,0.03096356479241258,-0.16845643520355225,-0.30788877606391907,-0.9363903999328613,0.03831239207777952,-0.008183251764520014,0.015134006949231268,0.9991176758023163,-0.07641404867172241,-0.09989643841981888,-0.4056718349456787,0.008102864027023315,-0.011808246374130249,-0.012694478034973145
2025-09-20T02:18:24Z,-0.018861892287477477,0.07497377082461928,0.022720443147431976,-0.16773363947868347,-0.30780553817749023,-0.9365474581718445,0.0375810802223092,-0.008997841212688274,0.01099806560396396,0.9991925332935577,-0.08073185384273529,-0.0895906388759613,-0.40553101897239685,0.011107921600341797,-0.011229515075683594,-0.016530334949493408
2025-09-20T02:18:24Z,-0.01997744480887301,0.07356931737492198,0.014596397328701813,-0.1668587177991867,-0.3076935112476349,-0.9367405772209167,0.03684639892393465,-0.00971314818492154,0.006925500146291329,0.9992497140464451,-0.08128893375396729,-0.08456680178642273,-0.39956003427505493,0.010709211230278015,-0.00938040018081665,-0.01583874225616455
2025-09-20T02:18:24Z,-0.021030151456646048,0.07216232161255752,0.006705548816469816,-0.16597162187099457,-0.307529091835022,-0.9369521141052246,0.036106367736210794,-0.010387040714158182,0.002971096097131566,0.9992895235269116,-0.07794784754514694,-0.08061015605926514,-0.38098904490470886,0.010021984577178955,-0.005621284246444702,-0.014669418334960938
2025-09-20T02:18:24Z,-0.022077423957305328,0.07081299837031707,-0.0007500405359712478,-0.1651751846075058,-0.3073410093784332,-0.9371545314788818,0.03539280682456508,-0.011044843644950602,-0.0007655149613990168,0.9993121177883386,-0.07611009478569031,-0.07917430251836777,-0.3536667823791504,0.009605735540390015,-0.0014643371105194092,-0.01446843147277832
2025-09-20T02:18:24Z,-0.023144015586340813,0.06942036983561918,-0.007608016104666843,-0.16453395783901215,-0.3070134222507477,-0.9373747110366821,0.034656649700239774,-0.01169669830811038,-0.004203027225113003,0.9993219553320146,-0.07679781317710876,-0.07006164640188217,-0.3240026831626892,0.01066640019416809,0.0005017220973968506,-0.017559349536895752
2025-09-20T02:18:24Z,-0.023889145874722666,0.06803516767912754,-0.013977766211437245,-0.16370344161987305,-0.3066123425960541,-0.9376513361930847,0.03392434052732176,-0.012174768087385011,-0.007390512711522951,0.99932285391037,-0.07305017113685608,-0.056208714842796326,-0.3028355538845062,0.012803107500076294,-0.0016851425170898438,-0.01760232448577881
2025-09-20T02:18:24Z,-0.024579115185333587,0.06685497737955115,-0.019927729867986497,-0.1629164218902588,-0.30633553862571716,-0.9378788471221924,0.033294705510554176,-0.01261474849481636,-0.010368084534413258,0.9993121062759203,-0.06065896153450012,-0.056123021990060806,-0.283502459526062,0.009992241859436035,-0.003608614206314087,-0.013351917266845703
2025-09-20T02:18:24Z,-0.025335098845364567,0.06591156832988046,-0.025432539359305645,-0.16229349374771118,-0.3062114417552948,-0.9380273818969727,0.032783523534698635,-0.013078262632711812,-0.013125351111008434,0.9992907167850896,-0.045598555356264114,-0.05925795063376427,-0.25716280937194824,0.007540121674537659,-0.0032063722610473633,-0.011365115642547607
2025-09-20T02:18:24Z,-0.026240357915449968,0.0652375864450636,-0.03033124270292237,-0.1619526892900467,-0.30625060200691223,-0.9380735158920288,0.03240759565864371,-0.013605850592044926,-0.015583495506727696,0.9992606205465774,-0.033570967614650726,-0.059241726994514465,-0.22698916494846344,0.008478060364723206,-0.0010066628456115723,-0.011704087257385254
2025-09-20T02:18:24Z,-0.027017181273753303,0.06475497199855432,-0.03463324777176596,-0.1616329401731491,-0.30638304352760315,-0.9380853772163391,0.03213024017789876,-0.014059567131106482,-0.017742322579671732,0.9992273201051058,-0.026188865303993225,-0.05235682800412178,-0.19606611132621765,0.013157427310943604,0.00011098384857177734,-0.015088200569152832
2025-09-20T02:18:24Z,-0.027489597345898766,0.06426712206067137,-0.0381248795623748,-0.16122418642044067,-0.30639660358428955,-0.9381512999534607,0.031857309846992,-0.014347118372240114,-0.019491144708591625,0.9991993668304464,-0.027931204065680504,-0.039940036833286285,-0.17265917360782623,0.01302976906299591,0.0002804994583129883,-0.014962494373321533
2025-09-20T02:18:24Z,-0.02796366306424218,0.06378092302922736,-0.04161664082266012,-0.16081537306308746,-0.30640870332717896,-0.9382175207138062,0.03158427841912497,-0.01463460390689621,-0.021239907652556324,0.9991681966646943,-0.029673542827367783,-0.02752324566245079,-0.14925223588943481,0.012902051210403442,0.00044855475425720215,-0.014836490154266357
2025-09-20T02:18:25Z,-0.028280245146015175,0.06324460070819679,-0.04441932434331395,-0.16042742133140564,-0.3062785267829895,-0.9383264183998108,0.031292220136603786,-0.014831173253577287,-0.02264145921103122,0.999143689083205,-0.02980671264231205,-0.023239128291606903,-0.122359499335289,0.010511532425880432,0.0017877519130706787,-0.011954247951507568
2025-09-20T02:18:25Z,-0.028635659680338255,0.06267605327218297,-0.04657677628833561,-0.16023431718349457,-0.3060302138328552,-0.9384404420852661,0.03098795846353168,-0.015035983449062672,-0.02372094768740225,0.9991250459883446,-0.02875845693051815,-0.024372268468141556,-0.08866856247186661,0.009524151682853699,-0.0007989108562469482,-0.011067986488342285
2025-09-20T02:18:25Z,-0.02890788878689271,0.062092526945101804,-0.048179548794184075,-0.16009967029094696,-0.3056930601596832,-0.9385733008384705,0.030681050131772948,-0.015189911696241313,-0.024521845504114705,0.9991128987002788,-0.027939945459365845,-0.01767517626285553,-0.0645114928483963,0.013255968689918518,-0.0032075047492980957,-0.016312777996063232
2025-09-20T02:18:25Z,-0.02891834254204825,0.06151044606345444,-0.04932661976546145,-0.15983152389526367,-0.30529624223709106,-0.9387481808662415,0.03038141524766956,-0.015205684396752316,-0.02509104467117207,0.9991077122654332,-0.03529389202594757,0.00571344792842865,-0.046679578721523285,0.01757030189037323,-0.006159782409667969,-0.02212446928024292
2025-09-20T02:18:25Z,-0.02863862820277747,0.060717472976679156,-0.050211132698067214,-0.15935742855072021,-0.30466535687446594,-0.9390336871147156,0.029982117983509016,-0.015069614507452308,-0.025523287081399157,0.9991108822822985,-0.038048725575208664,0.007069192826747894,-0.03451661393046379,0.01476721465587616,-0.008385926485061646,-0.015239715576171875
2025-09-20T02:18:25Z,-0.028533012777057453,0.06001309657796913,-0.0508403190786572,-0.1591089367866516,-0.30408403277397156,-0.9392642378807068,0.02962685813236533,-0.015017490507543836,-0.0258312660539825,0.9991143447522945,-0.03679800033569336,0.0075361039489507675,-0.02108437567949295,0.009700089693069458,-0.009487450122833252,-0.010686755180358887
2025-09-20T02:18:25Z,-0.028280024039975808,0.059362820900569074,-0.051147368020088006,-0.15880103409290314,-0.30351102352142334,-0.9395016431808472,0.02930298022084546,-0.014887483926883284,-0.025976560197530855,0.9991221053737531,-0.028882207348942757,0.0071931201964616776,-0.010425779968500137,0.011182352900505066,-0.012299269437789917,-0.010453999042510986
2025-09-20T02:18:25Z,-0.02799138670419899,0.058867554270368494,-0.051313846642205535,-0.15849290788173676,-0.30306559801101685,-0.9396974444389343,0.029058080076351234,-0.014739484578466992,-0.026052222591137878,0.9991294592342613,-0.02424260601401329,0.017993006855249405,-0.002609056420624256,0.014747068285942078,-0.011212676763534546,-0.01480644941329956
2025-09-20T02:18:25Z,-0.027470468924092464,0.058334415340648114,-0.05133347345156883,-0.15800295770168304,-0.30256497859954834,-0.9399412274360657,0.028798377806552613,-0.014472806855527317,-0.026051000245185037,0.9991409023686213,-0.03217260539531708,0.031163403764367104,0.00466799596324563,0.01608423888683319,-0.009289085865020752,-0.01707547903060913
2025-09-20T02:18:25Z,-0.026833381204608226,0.05753416734259323,-0.05117942091531989,-0.1574486643075943,-0.30178919434547424,-0.9402835965156555,0.02840797139973158,-0.01414223953301626,-0.025959796858299813,0.9991591982016261,-0.044600315392017365,0.02978317253291607,0.012065555900335312,0.013679087162017822,-0.004638612270355225,-0.015140056610107422
2025-09-20T02:18:25Z,-0.026216575189105914,0.056496679148208946,-0.05086335811322042,-0.15695495903491974,-0.3007677495479584,-0.9406933188438416,0.027899836082067923,-0.013816613583130731,-0.02578671637736159,0.9991825495843406,-0.05638330057263374,0.026928681880235672,0.02114020101726055,0.011830255389213562,-0.003810197114944458,-0.012845456600189209
2025-09-20T02:18:25Z,-0.02574196391330702,0.05537048544180335,-0.05040811517029798,-0.15662963688373566,-0.29964372515678406,-0.9411061406135559,0.027346388399500373,-0.013559167631917456,-0.025545812451851238,0.999207569289669,-0.05522085726261139,0.0187787227332592,0.025815384462475777,0.010547950863838196,-0.007906019687652588,-0.008587419986724854
2025-09-20T02:18:25Z,-0.025691081120883235,0.054401323825131756,-0.049795448207999256,-0.1567404866218567,-0.29864686727523804,-0.9414045214653015,0.026866971430223104,-0.013513481619572502,-0.025233136481205592,0.9992290979530655,-0.046729978173971176,0.006867900490760803,0.033256977796554565,0.009641945362091064,-0.008425265550613403,-0.008808791637420654
2025-09-20T02:18:25Z,-0.025639589542354277,0.053432193042086865,-0.04918277320004775,-0.156850665807724,-0.29764968156814575,-0.9417019486427307,0.02638754479617966,-0.013467782462196327,-0.024920455909734202,0.9992503226160543,-0.03823909908533096,-0.00504292082041502,0.0406985729932785,0.008735254406929016,-0.008944928646087646,-0.009031176567077637
2025-09-20T02:18:25Z,-0.025780298502350227,0.05260777895359927,-0.048338353333863514,-0.15719787776470184,-0.2967582046985626,-0.9419253468513489,0.025979593823305516,-0.013517125922202415,-0.02449537111584495,0.9992708624919382,-0.035565126687288284,-0.005954557564109564,0.04349992424249649,0.00859762728214264,-0.009432107210159302,-0.012147068977355957
2025-09-20T02:18:25Z,-0.02583405325631238,0.0518513951344222,-0.04747541327341117,-0.15746715664863586,-0.2959282398223877,-0.9421414732933044,0.02560684899555622,-0.013523928128752211,-0.024060264339791484,0.9992909586135659,-0.030851641669869423,-0.0007489710114896297,0.044108644127845764,0.010868072509765625,-0.012026488780975342,-0.01564735174179077
2025-09-20T02:18:25Z,-0.025877064771637467,0.05121978927171523,-0.046643477201463696,-0.15771761536598206,-0.29522010684013367,-0.9423217177391052,0.025296375554066487,-0.013527509973960806,-0.023641246276487067,0.9993088168306344,-0.028763199225068092,9.512039832770824e-05,0.03968566656112671,0.009183168411254883,-0.01160341501235962,-0.014919042587280273
2025-09-20T02:18:25Z,-0.025937756664743572,0.05064427852791962,-0.04584576942072363,-0.15797579288482666,-0.29456931352615356,-0.9424821138381958,0.025013498764538858,-0.013541246407750016,-0.02323987188626765,0.9993251845304121,-0.02739042416214943,-0.001222839462570846,0.040587931871414185,0.008660346269607544,-0.01022687554359436,-0.016115844249725342
2025-09-20T02:18:25Z,-0.025845177911880325,0.05004800320591544,-0.04501022361764188,-0.15809890627861023,-0.29389357566833496,-0.9426724314689636,0.02472226451235151,-0.013477926874603745,-0.022817538586316945,0.9993430450060028,-0.028207095339894295,0.012840280309319496,0.04561515897512436,0.008935615420341492,-0.01001054048538208,-0.01742100715637207
2025-09-20T02:18:25Z,-0.025756334446905182,0.049559294136049425,-0.04410573237685878,-0.15824154019355774,-0.29331013560295105,-0.9428302049636841,0.02448514927840428,-0.013417043701901093,-0.022361477746885045,0.9993600392270278,-0.021401945501565933,0.010344978421926498,0.04464974254369736,0.008014753460884094,-0.010202854871749878,-0.01167905330657959
2025-09-20T02:18:25Z,-0.02547615911709634,0.049213217234870626,-0.04315744729270008,-0.15821333229541779,-0.2928555905818939,-0.9429762363433838,0.024321641153088266,-0.013261755118829552,-0.02188209391536832,0.9993767308505576,-0.010271594859659672,0.017043905332684517,0.044035762548446655,0.012059241533279419,-0.012436062097549438,-0.013999342918395996
2025-09-20T02:18:25Z,-0.025096928499556633,0.049083780425604774,-0.04218630173963319,-0.15809549391269684,-0.2926027774810791,-0.9430744647979736,0.024267456430996766,-0.013059100737733838,-0.021391431321272747,0.9993912692768564,-0.00432767067104578,0.01952442154288292,0.047846470028162,0.01127365231513977,-0.01147189736366272,-0.012205958366394043
2025-09-20T02:18:25Z,-0.024793555686119805,0.04901064029628201,-0.04086372670358316,-0.15813499689102173,-0.29235580563545227,-0.9431444406509399,0.02424268223665042,-0.012890717963929365,-0.020726424206343796,0.9994080741321869,-0.005640867631882429,0.01918206736445427,0.0594753623008728,0.011116474866867065,-0.00936800241470337,-0.01280832290649414
2025-09-20T02:18:25Z,-0.024490082328554166,0.04893794729976235,-0.039541136052534315,-0.15817414224147797,-0.29210883378982544,-0.9432143568992615,0.02421792004246445,-0.012722327208121576,-0.020061408656398584,0.9994243968263695,-0.006954064592719078,0.01883971318602562,0.0711042508482933,0.010958924889564514,-0.007264137268066406,-0.013410747051239014
2025-09-20T02:18:25Z,-0.024186530975523944,0.048865641660373015,-0.038218552338341975,-0.15821294486522675,-0.29186177253723145,-0.9432843327522278,0.02419313962189321,-0.012553939245702918,-0.019396396150465012,0.9994402353068798,-0.00826726108789444,0.01849735714495182,0.0827331468462944,0.01080101728439331,-0.0051603615283966064,-0.014013111591339111
2025-09-20T02:18:25Z,-0.02393859247471304,0.048660236428402996,-0.03644320328318103,-0.15841588377952576,-0.2914268970489502,-0.9433847665786743,0.02410391962981769,-0.012406715734798079,-0.01850502678451238,0.9994611483428563,-0.01095083449035883,0.020683858543634415,0.09359623491764069,0.010089844465255737,-0.007297635078430176,-0.013080775737762451
2025-09-20T02:18:25Z,-0.023565920284714263,0.048403664753963106,-0.0344654013643735,-0.15855056047439575,-0.29091519117355347,-0.9435200691223145,0.023991220332968452,-0.012194461295867496,-0.017510699005936096,0.9994843587859099,-0.012717528268694878,0.020880717784166336,0.09959084540605545,0.010641589760780334,-0.008891969919204712,-0.012787699699401855
2025-09-20T02:18:25Z,-0.023077452610585966,0.0479794650704005,-0.03212835037260745,-0.15866433084011078,-0.29019463062286377,-0.9437227845191956,0.023797447673491606,-0.011918959262571109,-0.0163345374674499,0.9995121769913287,-0.01589735597372055,0.025169819593429565,0.11005223542451859,0.01128433644771576,-0.008559942245483398,-0.01350027322769165
2025-09-20T02:18:25Z,-0.02258800395376009,0.047556352402964436,-0.029791128998105633,-0.15877632796764374,-0.2894737720489502,-0.9439253211021423,0.02360360854308015,-0.011643437017069604,-0.015158343301282146,0.9995386570993161,-0.019077185541391373,0.029458921402692795,0.12051361799240112,0.011925339698791504,-0.008228182792663574,-0.014213025569915771
2025-09-20T02:18:25Z,-0.02209756699558603,0.04713441267477607,-0.027453749266915656,-0.15888647735118866,-0.28875255584716797,-0.9441276788711548,0.023409751833543407,-0.01136789454210181,-0.013982129649044835,0.9995635040982125,-0.022257015109062195,0.033748023211956024,0.13097500801086426,0.012564480304718018,-0.007896870374679565,-0.014925956726074219
2025-09-20T02:18:25Z,-0.02155362975349436,0.04656284894736268,-0.024669920198030913,-0.15905481576919556,-0.2878263294696808,-0.9443821310997009,0.023143310336070224,-0.011059992405429592,-0.012581442272395365,0.999591746177544,-0.02738521620631218,0.04033517464995384,0.14491432905197144,0.013287320733070374,-0.009196460247039795,-0.014832079410552979
2025-09-20T02:18:25Z,-0.020892968472090656,0.0459788608658039,-0.021716650842903754,-0.15915285050868988,-0.2868627607822418,-0.9446587562561035,0.02287140039872352,-0.010692505067644796,-0.011094770277198513,0.9996196055865945,-0.026675419881939888,0.03840842470526695,0.1468719094991684,0.012137264013290405,-0.013021260499954224,-0.012698233127593994
2025-09-20T02:18:25Z,-0.02028053700030153,0.045391128601243454,-0.018799387495568073,-0.159286230802536,-0.2858984172344208,-0.9449285864830017,0.022596160199436395,-0.01035033500774165,-0.009626757324356217,0.9996446854622697,-0.02621096558868885,0.03580145165324211,0.1445976197719574,0.009831666946411133,-0.014426201581954956,-0.011860072612762451
2025-09-20T02:18:25Z,-0.019697761462696712,0.0448420488978129,-0.015915489086404108,-0.1594378501176834,-0.28497326374053955,-0.9451824426651001,0.022338996854282863,-0.010024330181242963,-0.008176067984969195,0.9996667118646274,-0.023548673838377,0.029262254014611244,0.1385980099439621,0.011684596538543701,-0.014993429183959961,-0.009833931922912598
2025-09-20T02:18:25Z,-0.019276790278123675,0.04437011731068366,-0.013212120542908528,-0.15969693660736084,-0.28414466977119446,-0.94538813829422,0.022118070300622645,-0.009782200075163647,-0.006817882882202114,0.9996842338574106,-0.02122325450181961,0.025032151490449905,0.12946723401546478,0.010716661810874939,-0.017366021871566772,-0.010014951229095459
2025-09-20T02:18:25Z,-0.018843943353169943,0.043957302006191724,-0.010762657650905847,-0.15988197922706604,-0.2834063470363617,-0.9455784559249878,0.021924899021240334,-0.009537679608630332,-0.005586824026401373,0.9996984846851377,-0.019859477877616882,0.021355506032705307,0.11712421476840973,0.011538967490196228,-0.018350601196289062,-0.010409235954284668
2025-09-20T02:18:25Z,-0.01860492024309133,0.04358135882430964,-0.008545956787372001,-0.16019298136234283,-0.28273463249206543,-0.9457268714904785,0.02174807454437596,-0.009393132177898722,-0.004474452303969298,0.9997093275929544,-0.016354955732822418,0.01385235320776701,0.10116793215274811,0.010891199111938477,-0.018924415111541748,-0.01133430004119873
2025-09-20T02:18:25Z,-0.018449218281914332,0.04321508305808179,-0.006675115955468885,-0.16049866378307343,-0.2821202576160431,-0.9458585381507874,0.0215740410954108,-0.009294381462447222,-0.00353593248162172,0.9997177743714818,-0.018400652334094048,0.010720418766140938,0.08183213323354721,0.011095508933067322,-0.018357068300247192,-0.011985421180725098
2025-09-20T02:18:25Z,-0.01831707982890594,0.04282229900131524,-0.005233698955325038,-0.16072285175323486,-0.2815414071083069,-0.9459928870201111,0.02138458226933974,-0.009212304627460938,-0.0028122135140439424,0.9997248991699152,-0.01968693919479847,0.005299504846334457,0.06251455843448639,0.011213257908821106,-0.018907785415649414,-0.01268315315246582
2025-09-20T02:18:25Z,-0.018269157611506208,0.042472876035639005,-0.004191730544345657,-0.1609300673007965,-0.28106048703193665,-0.9461007118225098,0.021214770335580536,-0.009176876088176723,-0.0022892721110114454,0.9997301406823265,-0.020897187292575836,-0.0003449404612183571,0.04321055859327316,0.010290801525115967,-0.018220335245132446,-0.012371659278869629
2025-09-20T02:18:25Z,-0.018290540994644687,0.042133665420691094,-0.003513111563854247,-0.16111527383327484,-0.2806411385536194,-0.9461936354637146,0.021048302078806203,-0.009180101007215386,-0.0019487364702815643,0.9997343468809655,-0.012631616555154324,-0.004824370611459017,0.024216772988438606,0.010965868830680847,-0.02013722062110901,-0.01279670000076294
2025-09-20T02:18:25Z,-0.01834461012417816,0.04196730216163524,-0.0032054137053079404,-0.16124127805233002,-0.2804390490055084,-0.9462320804595947,0.020966506164542396,-0.009203772873737295,-0.001794737473098915,0.9997361272869916,-0.003707832656800747,-0.0030410303734242916,0.00923000369220972,0.011573314666748047,-0.01905113458633423,-0.013961970806121826
2025-09-20T02:18:25Z,-0.01854074240117609,0.04197358013763435,-0.003120548692983747,-0.16144722700119019,-0.280432790517807,-0.9461988210678101,0.020969863405908517,-0.009300927955046067,-0.0017544013318792065,0.9997352051975401,0.004623990505933762,-0.009728135541081429,-0.0017841830849647522,0.00806090235710144,-0.016755104064941406,-0.010513603687286377
2025-09-20T02:18:25Z,-0.018707347300649508,0.042208273712069276,-0.003202726644439222,-0.16158388555049896,-0.28066733479499817,-0.94610595703125,0.021086646912328325,-0.009385234608253216,-0.0017983196218997043,0.9997318940921168,0.01132061518728733,-0.007350102066993713,-0.002178806811571121,0.007829248905181885,-0.015129625797271729,-0.012809157371520996
2025-09-20T02:18:25Z,-0.01870947867109363,0.042558789070211975,-0.003289898583289784,-0.16156309843063354,-0.28101247549057007,-0.9460070729255676,0.02126144597891868,-0.00938747238306652,-0.0018435493300796339,0.9997281064696641,0.01663830690085888,0.006422423757612705,-0.004494230728596449,0.01062476634979248,-0.015198051929473877,-0.016117393970489502
2025-09-20T02:18:25Z,-0.018418501178153,0.04290704505004369,-0.0034802527524334676,-0.16124026477336884,-0.28137028217315674,-0.945955753326416,0.021434913980468907,-0.009244314917034062,-0.0019372039717972618,0.9997256027788468,0.01219906285405159,0.024062644690275192,-0.011231238022446632,0.011958047747612,-0.01265096664428711,-0.018667221069335938
2025-09-20T02:18:25Z,-0.01782083162159075,0.043118695760876694,-0.003744593832833333,-0.16061021387577057,-0.28160902857780457,-0.9459919333457947,0.021540106592284832,-0.008948572856063175,-0.0020638715388324068,0.9997257489100679,0.007684966083616018,0.025980064645409584,-0.010381970554590225,0.009289145469665527,-0.00830504298210144,-0.01699286699295044
2025-09-20T02:18:25Z,-0.01728255564986244,0.04318514897572127,-0.003931655715477574,-0.16005566716194153,-0.28169894218444824,-0.9460591077804565,0.021573067264363123,-0.008681582238173537,-0.002151865391773079,0.9997271929636311,-0.002464673016220331,0.022039318457245827,-0.0053910668939352036,0.008581593632698059,-0.004862099885940552,-0.013622105121612549
2025-09-20T02:18:25Z,-0.016833010142467124,0.04310594588716349,-0.004029240762269818,-0.15960727632045746,-0.2816378176212311,-0.9461531043052673,0.021533546022898625,-0.008457850261919012,-0.0021954640044859223,0.9997299078095391,-0.0025847048964351416,0.013875862583518028,-0.00494783092290163,0.0076182931661605835,-0.007974624633789062,-0.009015083312988281
2025-09-20T02:18:25Z,-0.016646757409384413,0.043159582253822965,-0.0041603107509528645,-0.15939925611019135,-0.2817075252532959,-0.9461674094200134,0.02156001290553479,-0.008366211072905584,-0.0022591979316306837,0.9997299767038389,0.006126095540821552,-0.0022940896451473236,-0.003831177717074752,0.006434455513954163,-0.010782122611999512,-0.006378293037414551
2025-09-20T02:18:26Z,-0.01678556587395572,0.04340181968693467,-0.004261047672453215,-0.159505233168602,-0.28195178508758545,-0.9460768103599548,0.0216805161428316,-0.008436918113230486,-0.002312059692762715,0.9997266955484349,0.01519044116139412,-0.00859800074249506,-0.002578139305114746,0.007870107889175415,-0.010449409484863281,-0.007734775543212891
2025-09-20T02:18:26Z,-0.01693706003449047,0.04369506473298456,-0.0042251019662908,-0.15965579450130463,-0.2822248041629791,-0.9459699988365173,0.021827075811988866,-0.008512537289227956,-0.0022969685692583856,0.9997229170327548,0.015404661186039448,-0.006518121808767319,0.0001270545180886984,0.009591996669769287,-0.01097029447555542,-0.013413965702056885
2025-09-20T02:18:26Z,-0.017068674488586077,0.04395080762789597,-0.004146666890641103,-0.15979793667793274,-0.2824561297893524,-0.945876955986023,0.021955096814433788,-0.0085777113658578,-0.0022602834994924366,0.9997196431934675,0.009621361270546913,-0.0017834571190178394,0.0026560493279248476,0.011333629488945007,-0.011099755764007568,-0.015994727611541748
2025-09-20T02:18:26Z,-0.016872608445059792,0.04410922125810869,-0.00410398761376551,-0.1596219688653946,-0.28260019421577454,-0.9458636045455933,0.022034686281272694,-0.008479385977586237,-0.002237462237574041,0.9997186743002174,0.0033496362157166004,0.012401262298226357,0.0039443871937692165,0.012998342514038086,-0.013116925954818726,-0.019107341766357422
2025-09-20T02:18:26Z,-0.01663499884524646,0.04422023664774285,-0.004030269198155491,-0.15941442549228668,-0.28269490599632263,-0.9458702802658081,0.022090752686056914,-0.008359904124363797,-0.002198454660364821,0.9997185101110754,0.00787300430238247,0.004759564530104399,0.0026688207872211933,0.008571147918701172,-0.01293092966079712,-0.013880491256713867
2025-09-20T02:18:26Z,-0.01652515001548107,0.04440148366636117,-0.003975152002681917,-0.15932294726371765,-0.2828589081764221,-0.9458366632461548,0.022181699554855272,-0.008304549549420191,-0.0021704349903928326,0.9997170527546497,0.008387114852666855,-0.0011620093137025833,0.00530991842970252,0.0066719651222229,-0.01282411813735962,-0.011351048946380615
2025-09-20T02:18:26Z,-0.01660012585990132,0.044567768629695526,-0.003828243390167625,-0.1594284027814865,-0.2829954922199249,-0.9457780718803406,0.02226535008466922,-0.008340541362196157,-0.002098519420795654,0.9997150346558591,0.00691875908523798,-0.006705813575536013,0.0076440442353487015,0.007519721984863281,-0.011028051376342773,-0.010200917720794678
2025-09-20T02:18:26Z,-0.01689486675763401,0.04471714457443721,-0.003753051876424849,-0.15972453355789185,-0.2831263542175293,-0.9456889033317566,0.022340026385174003,-0.008487158740765579,-0.002064843289452609,0.9997122000536869,0.006635125260800123,-0.006636604201048613,0.0022191768512129784,0.007872447371482849,-0.01284557580947876,-0.012136697769165039
2025-09-20T02:18:26Z,-0.01678437275809413,0.044907334179303635,-0.003806714416567119,-0.1596062332391739,-0.28331440687179565,-0.9456526041030884,0.022434980874162333,-0.008432689810618694,-0.0020912263340452882,0.9997105136365316,0.008031087927520275,0.007096147630363703,-0.00839810911566019,0.014352425932884216,-0.0162888765335083,-0.01580190658569336
2025-09-20T02:18:26Z,-0.01649676225896834,0.04514238676699332,-0.004068000736628077,-0.15927031636238098,-0.28357478976249695,-0.9456311464309692,0.02255168943358229,-0.0082920737584255,-0.0022195691604650347,0.9997088394708228,0.010668855160474777,0.007190409582108259,-0.010687120258808136,0.012241825461387634,-0.014220774173736572,-0.012313604354858398
2025-09-20T02:18:26Z,-0.016209113606713385,0.0453773748319801,-0.0043293519383789175,-0.1589343100786209,-0.2838350534439087,-0.9456096291542053,0.022668405050713866,-0.008151471503570129,-0.002347909775029922,0.9997069862065515,0.01330662239342928,0.007284671533852816,-0.012976132333278656,0.010131150484085083,-0.012152880430221558,-0.008825302124023438
