timestamp,attitude_roll,attitude_pitch,attitude_yaw,gravity_x,gravity_y,gravity_z,quaternion_x,quaternion_y,quaternion_z,quaternion_w,rotation_rate_x,rotation_rate_y,rotation_rate_z,user_acceleration_x,user_acceleration_y,user_acceleration_z
2025-09-16T01:58:05Z,-0.10288007761791111,0.37010019222578355,-0.2738315589389222,-0.09574507921934128,-0.3617089092731476,-0.9273616075515747,0.17513473651284117,-0.07514662823706256,-0.14335274841300633,0.9711491206464279,0.002332536270841956,-0.015598165802657604,-0.015375430695712566,0.0018110498785972595,-0.0006055831909179688,0.0012004375457763672
2025-09-16T01:58:05Z,-0.10301358246166614,0.3702215364940083,-0.2742824240291503,-0.09586437791585922,-0.3618220388889313,-0.9273051619529724,0.17516728623453084,-0.07525850637109494,-0.1435848823255925,0.9711002761178719,0.0019538826309144497,-0.01809002459049225,-0.013938125222921371,0.0013944432139396667,0.00042378902435302734,0.0017595291137695312
2025-09-16T01:58:05Z,-0.10314703062548941,0.37034296399362293,-0.2747332860639377,-0.0959835946559906,-0.36193522810935974,-0.9272486567497253,0.1751998359647816,-0.0753703770545521,-0.1438170012685444,0.9710513720018344,0.0015752289909869432,-0.020581882447004318,-0.012500819750130177,0.0009777620434761047,0.0014531910419464111,0.0023185014724731445
2025-09-16T01:58:05Z,-0.10328043558810937,0.37046444834604086,-0.2751841740650871,-0.0961027592420578,-0.362048476934433,-0.9271920919418335,0.17523237079388237,-0.07548224772088849,-0.14404912014301255,0.9710024082811949,0.0011965753510594368,-0.023073740303516388,-0.011063514277338982,0.0005610287189483643,0.002482682466506958,0.002877473831176758
2025-09-16T01:58:05Z,-0.10341379795730868,0.3705860454390385,-0.2756351390986231,-0.09622187167406082,-0.3621618151664734,-0.9271354675292969,0.17526490562298314,-0.07559411838722505,-0.14428125391863122,0.9709534445434344,0.0008179217693395913,-0.025565598160028458,-0.009626208804547787,0.00014422833919525146,0.0035122931003570557,0.0034363269805908203
2025-09-16T01:58:05Z,-0.10372207629545163,0.3706721891130318,-0.2759064477181017,-0.09650444984436035,-0.36224210262298584,-0.9270747303962708,0.1752743114051521,-0.07577295068902651,-0.14444105356502826,0.9709141006641627,0.0001976126222871244,-0.026603851467370987,-0.006073963828384876,0.00018820911645889282,0.0023889243602752686,0.0023460984230041504
2025-09-16T01:58:05Z,-0.1041210697595642,0.37069438543867383,-0.2760907425498315,-0.09687350690364838,-0.3622627854347229,-0.9270281791687012,0.17524930295219668,-0.07598419074777543,-0.14456577100009432,0.9708834993763885,-0.001121480017900467,-0.025216037407517433,-0.007589078973978758,0.0008511990308761597,0.0012611150741577148,0.00011581182479858398
2025-09-16T01:58:05Z,-0.10446868862793568,0.37069275784755484,-0.2762868887613919,-0.0971958115696907,-0.3622612953186035,-0.926995038986206,0.1752159045403446,-0.07617001467151124,-0.14469141621028617,0.9708562944892795,-0.0028724796138703823,-0.021880019456148148,-0.009350421838462353,0.0011864528059959412,-0.000814586877822876,-0.0008602142333984375
2025-09-16T01:58:05Z,-0.10472907035815364,0.37069523465325205,-0.27653683000968504,-0.09743709117174149,-0.36226359009742737,-0.9269688129425049,0.17518873306235186,-0.07631845871389648,-0.1448355823867633,0.9708280550425498,-0.0019566495902836323,-0.018817996606230736,-0.010256819427013397,0.0007767230272293091,-0.0005332827568054199,-0.0005630254745483398
2025-09-16T01:58:05Z,-0.10498945194016601,0.37069778418117033,-0.27678677882044705,-0.09767835587263107,-0.3622659742832184,-0.9269424676895142,0.17516156158435975,-0.07646690275628187,-0.14497974849475673,0.970799755991218,-0.0010408195666968822,-0.015755971893668175,-0.011163217946887016,0.0003669857978820801,-0.00025194883346557617,-0.00026601552963256836
2025-09-16T01:58:05Z,-0.10514726796364729,0.3706717466152219,-0.27710970549150915,-0.09782562404870987,-0.3622416853904724,-0.9269363880157471,0.17512509899556195,-0.07657015577562998,-0.14514999305477103,0.9707726786746596,-0.0012320748064666986,-0.013330650515854359,-0.012474730610847473,-0.00036950409412384033,-0.0003215372562408447,-0.0005680322647094727
2025-09-16T01:58:05Z,-0.10522089913492783,0.3706818102945518,-0.27743515436859156,-0.09789349883794785,-0.36225107312202454,-0.9269255995750427,0.17511217965897277,-0.07663502062853304,-0.1453145301321516,0.970745309892514,-0.0005388318095356226,-0.011672662571072578,-0.016693638637661934,-0.0005855783820152283,-0.0019353032112121582,-0.00135040283203125
2025-09-16T01:58:05Z,-0.10523554277760065,0.3707098556125848,-0.27782222042161864,-0.09790600091218948,-0.36227720975875854,-0.9269140362739563,0.1751099251513036,-0.07667778439862724,-0.14550403701816733,0.9707139785119665,2.9156100936233997e-05,-0.00943338219076395,-0.017242858186364174,-0.0002451017498970032,-0.0016942918300628662,0.0008853673934936523
2025-09-16T01:58:05Z,-0.10533742945341863,0.3707849644842413,-0.27822086829759873,-0.09799758344888687,-0.36234721541404724,-0.9268770217895508,0.17512377027043374,-0.07676688695445226,-0.14570740687631933,0.970673928920209,0.0007668662001378834,-0.017000403255224228,-0.01773914508521557,-0.0009814798831939697,-0.00012880563735961914,0.003579258918762207
2025-09-16T01:58:05Z,-0.10557313511564809,0.37080609550796817,-0.27855213080748437,-0.0982152447104454,-0.3623669147491455,-0.9268462657928467,0.17510414304623953,-0.07691162182335363,-0.14588908620581736,0.9706387322291672,-0.0017071240581572056,-0.019635694101452827,-0.012530575506389141,-0.0019138678908348083,0.0004239976406097412,0.0014380216598510742
2025-09-16T01:58:05Z,-0.10588217392034241,0.37082431670841987,-0.2788692889847632,-0.09850096702575684,-0.3623839020729065,-0.9268093109130859,0.17507824787426451,-0.07709052532448235,-0.14607030175023836,0.9706019267446631,-0.0022501852363348007,-0.017995236441493034,-0.014569694176316261,0.001038193702697754,-0.003527611494064331,-0.0018026232719421387
2025-09-16T01:58:05Z,-0.10593047568362794,0.37083785811722797,-0.2793221088303903,-0.09854521602392197,-0.3623965084552765,-0.9267996549606323,0.17506383949257545,-0.07715445714398461,-0.1462944482638487,0.9705657275851096,-0.005684820003807545,-0.005350899882614613,-0.025503940880298615,0.0046693310141563416,-0.007291674613952637,-0.004000842571258545
2025-09-16T01:58:05Z,-0.10562754447660778,0.3706075465123157,-0.2801720270001865,-0.09827325493097305,-0.3621818423271179,-0.9269124269485474,0.17494119882070783,-0.0770671890953601,-0.1466774347711998,0.970536856111841,-0.012044280767440796,-0.009223263710737228,-0.027440397068858147,0.003505796194076538,-0.004492133855819702,-0.0013900995254516602
2025-09-16T01:58:05Z,-0.10532487002934038,0.37037705810904625,-0.28102186669478657,-0.09800147265195847,-0.361966997385025,-0.9270251393318176,0.1748185283636601,-0.07697990611134303,-0.1470604063774004,0.9705079846556931,-0.01840374246239662,-0.013095628470182419,-0.02937685139477253,0.002342432737350464,-0.0016928613185882568,0.0012204647064208984
2025-09-16T01:58:05Z,-0.10502244226370663,0.370146297181038,-0.2818715701809237,-0.09772986173629761,-0.36175188422203064,-0.9271377921104431,0.17469581321172295,-0.0768926156253883,-0.14744336287699913,0.970478934402859,-0.024763204157352448,-0.01696799322962761,-0.03131330758333206,0.001179240643978119,0.0011062026023864746,0.003831028938293457
2025-09-16T01:58:05Z,-0.10498347465345675,0.3697929229695299,-0.2826749087451256,-0.0977071225643158,-0.36142241954803467,-0.9272686839103699,0.17449585144757754,-0.07692113023693486,-0.147825311438733,0.9704545344728422,-0.026571791619062424,-0.024592174217104912,-0.031009260565042496,0.0012608543038368225,0.0014368295669555664,0.0059452056884765625
2025-09-16T01:58:05Z,-0.10523983401671515,0.36937046125817957,-0.28341035202389875,-0.09796086698770523,-0.3610284924507141,-0.9273953437805176,0.17424300189563993,-0.07708241311337861,-0.1481991835754244,0.9704301438222847,-0.02773682028055191,-0.037350691854953766,-0.027484100311994553,0.0007528364658355713,0.0013880133628845215,0.006492137908935547
2025-09-16T01:58:05Z,-0.10582476894752652,0.3688793986356449,-0.28408395433863015,-0.09852202981710434,-0.36057049036026,-0.9275140762329102,0.17393465259738614,-0.07739313566319897,-0.14857069920571805,0.9704039081341066,-0.029169678688049316,-0.049230340868234634,-0.02567264437675476,0.0015375018119812012,0.0006380081176757812,0.005826711654663086
2025-09-16T01:58:05Z,-0.10667716936757607,0.3683012240965896,-0.28476831713298606,-0.09933478385210037,-0.3600311577320099,-0.9276368618011475,0.17356336629161676,-0.07782873221299443,-0.1489693610327829,0.9703744226028523,-0.03320108354091644,-0.05986776575446129,-0.028062744066119194,0.0017235800623893738,-0.0008130073547363281,0.0044258832931518555
2025-09-16T01:58:05Z,-0.10763657762360906,0.36768336074178787,-0.2855187386103497,-0.10024859756231308,-0.3594546616077423,-0.9277621507644653,0.17316187191036797,-0.07831916761442996,-0.14940853251312003,0.9703391684778432,-0.0365903377532959,-0.06434521079063416,-0.03241579607129097,0.0037768185138702393,-0.0017582476139068604,0.0014794468879699707
2025-09-16T01:58:05Z,-0.10861474826307377,0.3669309262579335,-0.2864004166011757,-0.10118535161018372,-0.35875239968299866,-0.9279322624206543,0.17268792982729422,-0.0788210160292399,-0.14991085698667866,0.9703055107225019,-0.04535745829343796,-0.06636673957109451,-0.037794314324855804,0.0032672882080078125,-0.0024831295013427734,-0.001601099967956543
2025-09-16T01:58:05Z,-0.10948699919231457,0.3660764301000212,-0.28736116535300166,-0.10202816128730774,-0.35795465111732483,-0.9281480312347412,0.17216868788880263,-0.07927124689669203,-0.15044060800109751,0.9702791528301054,-0.05238182842731476,-0.06633654236793518,-0.04080788791179657,0.0023284107446670532,-0.0018165409564971924,-0.0002187490463256836
2025-09-16T01:58:05Z,-0.110310540232543,0.36515033802358227,-0.28843589950997306,-0.10282894968986511,-0.3570897877216339,-0.928392767906189,0.17161330261849397,-0.07970249684976594,-0.15102008353860458,0.9702522013633136,-0.05583013966679573,-0.0639382004737854,-0.04310668632388115,0.002509959042072296,-0.0032633841037750244,-0.00013518333435058594
2025-09-16T01:58:05Z,-0.11105494484791259,0.3641711921377363,-0.2895726564635567,-0.10355871915817261,-0.356175035238266,-0.9286630153656006,0.17103514630061414,-0.08009663162717946,-0.15162172030599577,0.9702280258536543,-0.05703767389059067,-0.059842146933078766,-0.0472518615424633,0.002573244273662567,-0.0023789405822753906,-0.0001773238182067871
2025-09-16T01:58:05Z,-0.11174141740475502,0.3631756299412958,-0.29073609923340593,-0.1042356863617897,-0.35524457693099976,-0.9289435744285583,0.17045191046763228,-0.08046327535999669,-0.15223076410968103,0.9702048551129903,-0.05720599368214607,-0.05866514891386032,-0.04555833339691162,0.001755647361278534,-0.0010714828968048096,0.0003612637519836426
2025-09-16T01:58:05Z,-0.11242889699137601,0.36218085066975425,-0.29189991455654446,-0.10491388291120529,-0.35431450605392456,-0.9292224049568176,0.16986852569163594,-0.08082985931700362,-0.15283970278350753,0.970180969236945,-0.05737430974841118,-0.057488150894641876,-0.04386480525135994,0.0009392723441123962,0.00023630261421203613,0.0008980035781860352
2025-09-16T01:58:05Z,-0.11315223903587077,0.3611680296908181,-0.29295613565478745,-0.10562646389007568,-0.3533672094345093,-0.9295023679733276,0.1692775636836374,-0.08120291657655829,-0.1533988655476754,0.9701648295555803,-0.05812383443117142,-0.05672119930386543,-0.03870463743805885,0.0005586221814155579,0.0008462071418762207,0.0011483430862426758
2025-09-16T01:58:05Z,-0.11385032968039202,0.36014666507681475,-0.29379748117086735,-0.10631626844406128,-0.35241153836250305,-0.9297865033149719,0.1686927324742824,-0.0815444500029338,-0.15385113289666846,0.9701665152837478,-0.0574287585914135,-0.05270013585686684,-0.035069894045591354,0.0007670298218727112,0.000699847936630249,-0.00108414888381958
2025-09-16T01:58:05Z,-0.11454902266905505,0.3591257832037245,-0.29463922116783015,-0.10700693726539612,-0.3514559864997864,-0.9300689101219177,0.16810778213277508,-0.08188591623716583,-0.15430329504731924,0.9701674262719321,-0.05673368275165558,-0.04867907240986824,-0.031435150653123856,0.0009763166308403015,0.0005536377429962158,-0.0033184289932250977
2025-09-16T01:58:05Z,-0.11524840191707002,0.3581054536583457,-0.29548137382916206,-0.10769856721162796,-0.35050055384635925,-0.930349588394165,0.1675227126334323,-0.08222733763097945,-0.1547553373039282,0.9701677413510609,-0.05603860318660736,-0.044658008962869644,-0.027800405398011208,0.0011865496635437012,0.0004075467586517334,-0.005554378032684326
2025-09-16T01:58:05Z,-0.11586292079708675,0.3570422915067596,-0.2961537352061764,-0.10831327736377716,-0.34950464963912964,-0.9306528568267822,0.1669300811416721,-0.082510091878812,-0.15511690781586512,0.9701881279471143,-0.05751264840364456,-0.038298528641462326,-0.019868120551109314,0.002251960337162018,0.0023535192012786865,-0.005048096179962158
2025-09-16T01:58:05Z,-0.11639900959406864,0.35593820285186917,-0.296694760464522,-0.1088569238781929,-0.34846997261047363,-0.9309773445129395,0.1663288370265937,-0.08274074918978491,-0.1554072700041138,0.9702252856696113,-0.057768821716308594,-0.034712713211774826,-0.010900270193815231,0.0016866475343704224,0.0028291940689086914,-0.0027057528495788574
2025-09-16T01:58:05Z,-0.11696521372298799,0.3548349661585773,-0.2970099850864025,-0.10942883044481277,-0.34743568301200867,-0.9312968254089355,0.16573486966392317,-0.0829670711693069,-0.15559028741396558,0.9702782427588917,-0.05586400628089905,-0.03528770059347153,-0.0033124773763120174,0.0009654462337493896,0.002420783042907715,-0.00015693902969360352
2025-09-16T01:58:05Z,-0.1176331217860055,0.35377401578248363,-0.29716920440237155,-0.11009402573108673,-0.3464406132698059,-0.9315890669822693,0.16515993080598726,-0.083232552934882,-0.15570632832930267,0.9703349126878251,-0.05162717401981354,-0.03745775297284126,0.003070525359362364,0.001438334584236145,0.001570671796798706,0.0015583634376525879
2025-09-16T01:58:05Z,-0.11832946139396328,0.35275766963973876,-0.29723997210138337,-0.11078421026468277,-0.3454870283603668,-0.9318613409996033,0.16460807788539927,-0.08350750111638865,-0.15578209294133702,0.9703929401961522,-0.04765528067946434,-0.04225986823439598,0.006529130972921848,0.0015966519713401794,0.0008064806461334229,0.001987755298614502
2025-09-16T01:58:05Z,-0.11912738335777852,0.35177991121317326,-0.29729592697049645,-0.11156781762838364,-0.3445693254470825,-0.9321076273918152,0.16406764063960813,-0.08383312639291005,-0.1558592205146549,0.9704440519957699,-0.0439128577709198,-0.04355308786034584,0.005372995976358652,0.0011790096759796143,0.0006161928176879883,0.002103269100189209
2025-09-16T01:58:05Z,-0.11993511590853503,0.350846109285447,-0.2973900504914198,-0.11235912889242172,-0.3436925411224365,-0.9323362708091736,0.16354616010299305,-0.08416961405162021,-0.15595594916764385,0.9704874522707694,-0.04510342329740524,-0.04786563292145729,0.0015671949367970228,0.0007506981492042542,-0.00017589330673217773,0.0021558403968811035
2025-09-16T01:58:05Z,-0.12083685632084062,0.3499266123370677,-0.2976055207952725,-0.11323785036802292,-0.3428289294242859,-0.9325478672981262,0.16301910125225919,-0.0845625707368419,-0.15611904518785133,0.9705157559123682,-0.04719066619873047,-0.05090697482228279,-0.006394905038177967,0.0011268258094787598,-0.001909017562866211,0.0027126073837280273
2025-09-16T01:58:05Z,-0.12173583558534555,0.3489928840581183,-0.2979814301754864,-0.11411496996879578,-0.3419516384601593,-0.9327630400657654,0.1624783806803405,-0.08496618841442927,-0.15635907760045523,0.9705325270577302,-0.04957079142332077,-0.05261817201972008,-0.015548079274594784,0.000716082751750946,-0.0021216869354248047,0.0009699463844299316
2025-09-16T01:58:05Z,-0.12254976391410116,0.34805804578915445,-0.29858039338646913,-0.11491316556930542,-0.34107300639152527,-0.9329866766929626,0.16193406605989008,-0.0853463624228358,-0.15669998954145925,0.970535115591002,-0.05212998762726784,-0.05056467652320862,-0.025416739284992218,0.0007830187678337097,-0.0030894875526428223,0.00024700164794921875
2025-09-16T01:58:05Z,-0.12325903066421838,0.34712707560860706,-0.2993700390873667,-0.11561385542154312,-0.34019771218299866,-0.9332196712493896,0.1613914163697202,-0.0856911108128422,-0.15712463314242012,0.9705264618439021,-0.05546813830733299,-0.04810718074440956,-0.03414961323142052,0.0008138865232467651,-0.003536731004714966,-8.71419906616211e-05
2025-09-16T01:58:06Z,-0.12383675804900776,0.3462034145082662,-0.30039620207607226,-0.11619175225496292,-0.3393290042877197,-0.9334641695022583,0.16085223039708305,-0.08599116712352504,-0.15765324087865493,0.970503681545281,-0.05331709235906601,-0.045842692255973816,-0.04445536434650421,-0.0005056709051132202,-0.004083484411239624,0.00032448768615722656
2025-09-16T01:58:06Z,-0.12434147671305537,0.34551343722706085,-0.3017292806808945,-0.11669187992811203,-0.33867987990379333,-0.9336374998092651,0.16041903106065988,-0.08629591241962499,-0.15832868063265587,0.9704384132190661,-0.04752795770764351,-0.04861953854560852,-0.049396730959415436,-0.0013098567724227905,-0.0030912458896636963,0.0008278489112854004
2025-09-16T01:58:06Z,-0.12484703838246804,0.34482412342650837,-0.3030623955579299,-0.11719292402267456,-0.33803120255470276,-0.9338098168373108,0.15998572749323436,-0.08660059054070206,-0.15900400035564777,0.9703724297745911,-0.04173882305622101,-0.051396388560533524,-0.05433810129761696,-0.002113156020641327,-0.0020985305309295654,0.0013301968574523926
2025-09-16T01:58:06Z,-0.12535345456875915,0.3441353946266827,-0.30439552624228083,-0.11769488453865051,-0.3373829424381256,-0.9339810609817505,0.15955228988394551,-0.0869052089030898,-0.1596791999791467,0.9703056716072539,-0.03594968467950821,-0.05417323485016823,-0.05927947163581848,-0.002915523946285248,-0.0011053979396820068,0.0018314123153686523
2025-09-16T01:58:06Z,-0.12584891405805135,0.34361056846457944,-0.3057505952627182,-0.11817982792854309,-0.33688884973526,-0.9340981841087341,0.15919819261490237,-0.08721713059150424,-0.16036683806316898,0.9702224482573971,-0.03219648078083992,-0.05031600594520569,-0.05786731094121933,-0.002513483166694641,-0.001295238733291626,-0.00043123960494995117
2025-09-16T01:58:06Z,-0.12632063518414668,0.34318651289715457,-0.3070989690025192,-0.11863843351602554,-0.33648955821990967,-0.9341839551925659,0.158894989075569,-0.08752362712450944,-0.16105095023056976,0.9701311823272594,-0.027532029896974564,-0.04086436331272125,-0.059417251497507095,0.00038826465606689453,-0.0018907487392425537,-0.005187571048736572
2025-09-16T01:58:06Z,-0.12651930142404114,0.3428729889439955,-0.3084821239305728,-0.11883732676506042,-0.3361942768096924,-0.9342650175094604,0.15866577623550082,-0.08770784026056609,-0.16173206589844788,0.9700387277467113,-0.023893345147371292,-0.024415194988250732,-0.06504276394844055,0.0032378658652305603,-0.003459453582763672,-0.0055654048919677734
2025-09-16T01:58:06Z,-0.1264482729322589,0.3426188319682018,-0.3099604344314828,-0.11878173798322678,-0.3359549045562744,-0.9343581795692444,0.15848299844306374,-0.0877727185734492,-0.1624389288382219,0.9699445746523918,-0.022161288186907768,-0.014508947730064392,-0.07000653445720673,0.00285504013299942,-7.349252700805664e-05,-0.004312098026275635
2025-09-16T01:58:06Z,-0.12628356044839933,0.34231771297697694,-0.3114970802814687,-0.11864057183265686,-0.3356712758541107,-0.9344780445098877,0.15828243493379943,-0.08779322311815199,-0.16316579261507144,0.9698534384161744,-0.026267744600772858,-0.015421885997056961,-0.06746618449687958,0.0015123933553695679,0.00462496280670166,-0.0006650686264038086
2025-09-16T01:58:06Z,-0.12617000262524763,0.34194123561999273,-0.31290989047843243,-0.11855035275220871,-0.33531662821769714,-0.9346168041229248,0.15804650018246266,-0.0878230971108441,-0.1638353030557956,0.9697763751767675,-0.027961859479546547,-0.020647773519158363,-0.05693933367729187,0.00041078776121139526,0.007730215787887573,0.0024024248123168945
2025-09-16T01:58:06Z,-0.12625161382433456,0.34156819476379435,-0.3140654017131331,-0.11864236742258072,-0.33496516942977905,-0.934731125831604,0.15780752965567924,-0.08792724994797504,-0.16439551200971655,0.9697110604341879,-0.026215597987174988,-0.027843039482831955,-0.043145254254341125,-0.0005064234137535095,0.00810810923576355,0.004177451133728027
2025-09-16T01:58:06Z,-0.12655508216561778,0.34118920851250933,-0.31492756926842197,-0.11894203722476959,-0.3346080482006073,-0.9348209500312805,0.15756022252186958,-0.08811518248550179,-0.1648308360919906,0.9696603135132176,-0.020847361534833908,-0.03425295278429985,-0.029897764325141907,-2.8759241104125977e-05,0.008378595113754272,0.0032278895378112793
2025-09-16T01:58:06Z,-0.12702422147161088,0.34082804114266335,-0.3154896270319338,-0.11939588934183121,-0.33426767587661743,-0.9348849058151245,0.1573210148152729,-0.08836091851637358,-0.16513393026840797,0.9696252157373939,-0.016240492463111877,-0.03396587818861008,-0.016830245032906532,-7.888674736022949e-05,0.008594274520874023,0.0012293457984924316
2025-09-16T01:58:06Z,-0.1275536790629227,0.34050019044798335,-0.3157403821796002,-0.1199047863483429,-0.3339586555957794,-0.9349302053451538,0.15710668394071564,-0.08861372393137716,-0.1652913288302464,0.9696100741154021,-0.012377241626381874,-0.0281076580286026,-0.003271326422691345,0.0008709803223609924,0.0067916810512542725,-0.0024787187576293945
2025-09-16T01:58:06Z,-0.1279161543132221,0.3402061263918005,-0.3155524371791696,-0.12025619298219681,-0.33368146419525146,-0.934984028339386,0.1569419994777367,-0.08875353865833535,-0.1652234385582639,0.9696355437120218,-0.009706249460577965,-0.02326267585158348,0.002356569282710552,0.0005198195576667786,0.0054435133934021,-0.0018728971481323242
2025-09-16T01:58:06Z,-0.1282785255309382,0.33991200963944485,-0.31536460895970314,-0.12060754001140594,-0.33340418338775635,-0.9350376725196838,0.15677731502331882,-0.0888933459347183,-0.1651555333166472,0.96966095372116,-0.007035256829112768,-0.01841769367456436,0.00798446498811245,0.00016860663890838623,0.004095256328582764,-0.00126725435256958
2025-09-16T01:58:06Z,-0.12864081118740373,0.3396177843230939,-0.31517692669710595,-0.12095886468887329,-0.3331267833709717,-0.9350911974906921,0.15661260076660044,-0.08903315317685959,-0.16508762800654664,0.969686304125696,-0.0043642641976475716,-0.013572712428867817,0.013612360693514347,-0.00018262118101119995,0.0027469098567962646,-0.0006617903709411621
2025-09-16T01:58:06Z,-0.12889701780115936,0.3394538934526793,-0.31486234429795157,-0.12120545655488968,-0.3329722583293915,-0.9351142644882202,0.1565257303364679,-0.08912098516962128,-0.1649521947919415,0.9697153083990352,0.005079176276922226,-0.006976267788559198,0.016464419662952423,0.0009117797017097473,0.0009202957153320312,-0.00013238191604614258
2025-09-16T01:58:06Z,-0.12914816210500393,0.33977630942479536,-0.3144855884006893,-0.12142646312713623,-0.33327624201774597,-0.9349772930145264,0.15667870728838895,-0.08923636933121452,-0.16479505202320732,0.9697066674600326,0.01380062010139227,-0.009272108785808086,0.015378087759017944,0.0007629692554473877,0.0012195110321044922,0.0004363059997558594
2025-09-16T01:58:06Z,-0.12939947244525912,0.34009872752515274,-0.31410876668211773,-0.12164755910634995,-0.33358022570610046,-0.9348401427268982,0.1568316991500204,-0.08935174605935327,-0.164637909322957,0.9696980861256325,0.022522062063217163,-0.011567950248718262,0.014291755855083466,0.0006142556667327881,0.0015186965465545654,0.0010048151016235352
2025-09-16T01:58:06Z,-0.12965092834544034,0.340420912242982,-0.3137317649860603,-0.12186872214078903,-0.33388394117355347,-0.9347029328346252,0.15698463141561192,-0.0894671152684334,-0.16448075151610478,0.969689325994546,0.03124350681900978,-0.013863790780305862,0.013205424882471561,0.0004656091332435608,0.0018175840377807617,0.0015732645988464355
2025-09-16T01:58:06Z,-0.1300609349264373,0.3410904984008617,-0.31335880347173806,-0.12222293019294739,-0.3345150351524353,-0.9344309568405151,0.15729341717387982,-0.08968436403516433,-0.1643444412237486,0.9696423353117285,0.03723008185625076,-0.014135333709418774,0.010919662192463875,0.0010402798652648926,0.0017021894454956055,-0.00012934207916259766
2025-09-16T01:58:06Z,-0.13047130124284845,0.3417599110662624,-0.3129854701387284,-0.12257721275091171,-0.3351458013057709,-0.9341585040092468,0.15760215825437876,-0.0899015903988067,-0.16420810099212388,0.9695952254539478,0.04321665316820145,-0.014406876638531685,0.008633899502456188,0.0016150176525115967,0.0015863478183746338,-0.0018325448036193848
2025-09-16T01:58:06Z,-0.13081861508220854,0.34266332674423716,-0.3127312383506559,-0.12286210805177689,-0.3359968364238739,-0.9338153004646301,0.15802461553628874,-0.09011414179190927,-0.1641290086647272,0.9695200952259401,0.04912187159061432,-0.01380996499210596,0.006587128154933453,0.0014816895127296448,0.0011377036571502686,-0.001369774341583252
2025-09-16T01:58:06Z,-0.1311662814829425,0.3435666840833534,-0.31247656468529966,-0.12314701080322266,-0.3368475139141083,-0.9334712624549866,0.15844704305014143,-0.09032666334846885,-0.1640498565272773,0.969444786252609,0.05502709001302719,-0.013213053345680237,0.004540356807410717,0.001348353922367096,0.0006887316703796387,-0.00090789794921875
2025-09-16T01:58:06Z,-0.13145986604341056,0.34461929309839673,-0.31228750779985115,-0.12337450683116913,-0.33783844113349915,-0.9330829977989197,0.1589435564248943,-0.09052861569091196,-0.1640011433033989,0.9693528722053549,0.05553451180458069,-0.013141471892595291,0.0022724303416907787,0.0013092607259750366,0.000557243824005127,-0.0007715225219726562
2025-09-16T01:58:06Z,-0.13175377351278988,0.34567184626290476,-0.3120979924642149,-0.12360195815563202,-0.3388289213180542,-0.9326936602592468,0.15944002513044053,-0.09073053817969139,-0.16395235523134916,0.9692606602206939,0.056041933596134186,-0.01306989137083292,4.5036431401968e-06,0.001270100474357605,0.0004253089427947998,-0.0006362795829772949
2025-09-16T01:58:06Z,-0.1320537902674,0.3466414855688144,-0.3120261621330422,-0.12383846193552017,-0.339741051197052,-0.9323304295539856,0.15989029291569826,-0.09093880763827396,-0.16395963717531348,0.9691657612070256,0.05136624723672867,-0.015557709150016308,-0.003255728166550398,0.0008611008524894714,0.0005189478397369385,-0.00016874074935913086
2025-09-16T01:58:06Z,-0.13235398001539123,0.34761106603634867,-0.31195399504091753,-0.12407480180263519,-0.34065279364585876,-0.931966245174408,0.16034050113059814,-0.09114704722607199,-0.1639668741418912,0.9690706238263104,0.04669056087732315,-0.01804552599787712,-0.006515960209071636,0.0004519224166870117,0.0006122589111328125,0.00029790401458740234
2025-09-16T01:58:06Z,-0.13267535969606678,0.3483355934386953,-0.3119893707691249,-0.12434162944555283,-0.34133389592170715,-0.9316814541816711,0.16066486721987552,-0.09135680370627841,-0.16402341808474816,0.9689875891471742,0.039792850613594055,-0.019506996497511864,-0.006795644294470549,0.0003323778510093689,0.0006396174430847168,0.00043469667434692383
2025-09-16T01:58:06Z,-0.13299681020485235,0.3490601311527468,-0.3120244790188097,-0.12460828572511673,-0.3420148193836212,-0.9313960671424866,0.16098920352397406,-0.09156654525109233,-0.16407991718718598,0.9689044353101959,0.03289514034986496,-0.020968466997146606,-0.007075328379869461,0.00021264702081680298,0.0006667971611022949,0.000570833683013916
2025-09-16T01:58:06Z,-0.13338727907317835,0.34968880164956717,-0.31206436947759236,-0.1249433383345604,-0.34260550141334534,-0.931134045124054,0.1612610119487664,-0.09180331677058194,-0.16414257614852387,0.968826221583832,0.029024191200733185,-0.01978171616792679,-0.0058745164424180984,9.604543447494507e-05,0.00030100345611572266,0.00025790929794311523
2025-09-16T01:58:06Z,-0.1337287162402825,0.3502789717594873,-0.3120982881865596,-0.12523427605628967,-0.34315991401672363,-0.9308907985687256,0.16151836742696798,-0.09201311546709064,-0.1641977468166932,0.9687540961384975,0.029639042913913727,-0.0192343108355999,-0.005737996194511652,-8.164346218109131e-05,-0.000620722770690918,-0.000632941722869873
2025-09-16T01:58:06Z,-0.13404822504406863,0.35085157774995746,-0.31212935129309205,-0.12550541758537292,-0.3436976969242096,-0.930655837059021,0.16176909089421165,-0.09221080679337625,-0.16424950820325168,0.9686846568208539,0.031001925468444824,-0.015351763926446438,-0.004922728519886732,-9.931623935699463e-05,-0.0006582438945770264,-0.0006600618362426758
2025-09-16T01:58:06Z,-0.13427919533048965,0.3514940757251337,-0.31217079951560456,-0.1256907731294632,-0.3443009853363037,-0.9304078221321106,0.16206055212036938,-0.09237136650633065,-0.16430052083464708,0.9686119997110137,0.03546788543462753,-0.012484890408813953,-0.004788325633853674,-0.0007248967885971069,-0.0004699230194091797,-8.463859558105469e-06
2025-09-16T01:58:06Z,-0.13452153645829462,0.3522380306140296,-0.31220940812740977,-0.1258818656206131,-0.3449993431568146,-0.9301232099533081,0.16240050238126685,-0.09254434990293463,-0.16435307202288235,0.9685296252709463,0.04108355566859245,-0.011592076160013676,-0.006462621036916971,-0.0016874521970748901,-0.0005586445331573486,0.0005740523338317871
2025-09-16T01:58:06Z,-0.134750890610126,0.3531261307191286,-0.31224940813370494,-0.12605397403240204,-0.34583279490470886,-0.9297903180122375,0.16281148195837125,-0.09272130411540276,-0.16440805220750435,0.9684343734296695,0.04751264303922653,-0.01329222321510315,-0.00728263147175312,-0.002361387014389038,-0.0013195574283599854,0.0008355379104614258
2025-09-16T01:58:06Z,-0.13508653998555067,0.3541699874609194,-0.3122732132912067,-0.1263173669576645,-0.34681203961372375,-0.9293897747993469,0.16329013204722478,-0.09295936382180932,-0.16446691560565216,0.9683209376998858,0.05596652626991272,-0.017517011612653732,-0.006625213660299778,-0.003083258867263794,-0.0027250945568084717,0.0013272762298583984
2025-09-16T01:58:06Z,-0.13552406949110393,0.3554268768344827,-0.31230136032145767,-0.12666499614715576,-0.34799066185951233,-0.9289017915725708,0.16386365813389772,-0.09326205460491413,-0.16454042787359205,0.9681824511741796,0.0686904713511467,-0.024796754121780396,-0.00854462943971157,-0.002537742257118225,-0.0020442306995391846,0.0023873448371887207
2025-09-16T01:58:06Z,-0.13611911425966006,0.35689440619647167,-0.3122345053517826,-0.12714827060699463,-0.34936606884002686,-0.9283192753791809,0.16453092132517708,-0.09364791966206619,-0.16458515845780364,0.9680244473835313,0.07963907718658447,-0.030621930956840515,-0.004620767198503017,-0.002776429057121277,-0.0011718571186065674,6.240606307983398e-05
2025-09-16T01:58:06Z,-0.136755949433104,0.35855542801075574,-0.3120287690285636,-0.1276601403951645,-0.35092195868492126,-0.9276619553565979,0.16529519546154633,-0.09405595736359981,-0.1645702289845229,0.9678571542064557,0.0883515477180481,-0.024068288505077362,-0.00041880225762724876,-0.000582575798034668,-0.0019462406635284424,-0.0032703280448913574
2025-09-16T01:58:06Z,-0.13717375813543956,0.36036661323648456,-0.3118359971058247,-0.12796059250831604,-0.35261738300323486,-0.9269773960113525,0.1661497453919155,-0.09436929009350672,-0.16454671008073693,0.967684327663606,0.09300705045461655,-0.008512219414114952,-0.005224690772593021,0.0031562000513076782,-0.0032111406326293945,-0.005841076374053955
2025-09-16T01:58:06Z,-0.13696959933056754,0.3622008377347013,-0.31193256881361026,-0.12768280506134033,-0.35433319211006165,-0.9263612031936646,0.16705289155595424,-0.09440720817651872,-0.16461193054454684,0.9675140217676673,0.08836893737316132,0.0010977545753121376,-0.013761952519416809,0.003550887107849121,-0.0010186731815338135,-0.004076659679412842
2025-09-16T01:58:06Z,-0.1367650949789736,0.36403508738349954,-0.312029616702474,-0.12740454077720642,-0.3560478389263153,-0.9257418513298035,0.16795591860496217,-0.09444504416623657,-0.16467701593922981,0.9673428815613849,0.08373083174228668,0.010707728564739227,-0.02229921519756317,0.003945082426071167,0.0011726617813110352,-0.002315342426300049
2025-09-16T01:58:06Z,-0.1364831125111416,0.3656017211423043,-0.3122827346110617,-0.127067431807518,-0.35751137137413025,-0.9252240061759949,0.16872787969545835,-0.09443985144869367,-0.16480559804101455,0.9671871656150801,0.07151017338037491,0.007121501490473747,-0.022644925862550735,0.0026252195239067078,0.004258990287780762,0.0012316703796386719
2025-09-16T01:58:06Z,-0.13624333156045174,0.3668968907262771,-0.3125739816920515,-0.1267825812101364,-0.3587206304073334,-0.9247949123382568,0.16936268494616957,-0.09443941852982136,-0.16495071369614767,0.9670515174484077,0.05880178511142731,-0.004152119159698486,-0.01955946534872055,0.00174008309841156,0.005333811044692993,0.003949165344238281
