timestamp,attitude_roll,attitude_pitch,attitude_yaw,gravity_x,gravity_y,gravity_z,quaternion_x,quaternion_y,quaternion_z,quaternion_w,rotation_rate_x,rotation_rate_y,rotation_rate_z,user_acceleration_x,user_acceleration_y,user_acceleration_z
2025-09-20T02:23:53Z,-0.002890269916259302,0.0569913429487108,0.014267704947814853,-0.17110201716423035,-0.4123338758945465,-0.8948211669921875,0.02850136433402407,-0.0012412565042823741,0.00708971462708121,0.9995678831527258,-0.0020308298990130424,0.002010229043662548,0.006047796458005905,0.004868164658546448,-0.012294381856918335,-0.011736273765563965
2025-09-20T02:23:53Z,-0.002792698267386219,0.05689563893485225,0.014373705958769703,-0.17105305194854736,-0.41223034262657166,-0.8948782086372375,0.02845325044689081,-0.0011913268634168104,0.007144159296103032,0.9995689208008116,-0.0024088688660413027,0.004042340442538261,0.00548827089369297,0.004389166831970215,-0.013087868690490723,-0.012690484523773193
2025-09-20T02:23:53Z,-0.002717302420434525,0.05680607946199367,0.014457427819375623,-0.1710158735513687,-0.4121360778808594,-0.8949287533760071,0.028408268730907186,-0.0011527794127887295,0.007187144755160593,0.9995699450634977,-0.005755431950092316,0.0031664215493947268,0.0034224125556647778,0.0037685930728912354,-0.012598544359207153,-0.01322627067565918
2025-09-20T02:23:53Z,-0.0027009079500909567,0.05659188513258673,0.014517287871308045,-0.17102304100990295,-0.4119341969490051,-0.8950203061103821,0.02830119283365171,-0.0011445166031394626,0.007217461363882728,0.999572775212777,-0.008677499368786812,0.0016343123279511929,0.003758640494197607,0.003806471824645996,-0.011789470911026001,-0.012523889541625977
2025-09-20T02:23:53Z,-0.0026844930413822306,0.05637775314387815,0.01457715947784415,-0.1710301786661148,-0.41173237562179565,-0.8951117992401123,0.028194146724289805,-0.001136249522316115,0.0072477821962757,0.9995756098663477,-0.011599565856158733,0.00010220299009233713,0.004094868432730436,0.003844335675239563,-0.010980308055877686,-0.011821568012237549
2025-09-20T02:23:53Z,-0.002778855252320981,0.05615495696690771,0.014691152177966772,-0.17115600407123566,-0.41151365637779236,-0.8951883316040039,0.028083204967514014,-0.0011826259108694472,0.007303601768394485,0.9995782811001708,-0.01006985642015934,-0.007369752507656813,0.006617492064833641,0.003283962607383728,-0.009896248579025269,-0.009249448776245117
2025-09-20T02:23:53Z,-0.0028819767221585357,0.05593051370813825,0.014861990602850405,-0.171310156583786,-0.4112837612628937,-0.8952644467353821,0.02797151534391135,-0.0012326042065190933,0.007387722659187452,0.9995806330722539,-0.008294454775750637,-0.006046507973223925,0.0065272836945950985,0.004831865429878235,-0.011439621448516846,-0.01124262809753418
2025-09-20T02:23:53Z,-0.0029299555054766355,0.055757892116078886,0.015023339249488097,-0.17141149938106537,-0.41110193729400635,-0.8953285813331604,0.027885519681116428,-0.0012549785590146483,0.0074678367129684935,0.9995823970142511,-0.008699148893356323,-0.0015038670971989632,0.008624252863228321,0.004462197422981262,-0.010433316230773926,-0.011603832244873047
2025-09-20T02:23:53Z,-0.0029215103500578044,0.05556052696948501,0.015217548246996396,-0.17147420346736908,-0.41089239716529846,-0.8954127430915833,0.027786967633997937,-0.0012488044838614538,0.00756518324270125,0.9995844337752946,-0.009887538850307465,-0.0018509171204641461,0.011632779613137245,0.003308132290840149,-0.008680939674377441,-0.011639714241027832
2025-09-20T02:23:53Z,-0.0029313726008885796,0.055275875538228214,0.015479566506964578,-0.1715778410434723,-0.410593181848526,-0.8955301642417908,0.027644901805413284,-0.0012512000971383768,0.007696239744094888,0.9995873881949748,-0.015516242943704128,0.0011175564723089337,0.012241216376423836,0.0032616108655929565,-0.007887810468673706,-0.01314234733581543
2025-09-20T02:23:54Z,-0.0028978311068891846,0.05495579858365686,0.01574039607374833,-0.17164219915866852,-0.4102623462677002,-0.8956694602966309,0.02748496110489829,-0.0012320964077740507,0.007827330817959083,0.9995907987186936,-0.016597354784607887,0.003033391200006008,0.012128095142543316,0.0027952492237091064,-0.009094774723052979,-0.01314765214920044
2025-09-20T02:23:54Z,-0.002794104168673519,0.054623086522570724,0.01596980988656918,-0.17163236439228058,-0.4099254310131073,-0.8958255648612976,0.02731840211213201,-0.0011784356682958404,0.007943684866818446,0.9995945152776955,-0.014060011133551598,0.0035888380371034145,0.009734257124364376,0.002361387014389038,-0.009634047746658325,-0.012404143810272217
2025-09-20T02:23:54Z,-0.0027597611491791216,0.05435362147622561,0.016160579932565828,-0.17167066037654877,-0.4096516966819763,-0.8959434628486633,0.02718369744036414,-0.0011597586623204744,0.008039715495696563,0.9995974764669014,-0.00775564881041646,0.005524449050426483,0.007870793342590332,0.00270920991897583,-0.011485278606414795,-0.012760639190673828
2025-09-20T02:23:54Z,-0.002620223795243414,0.05419389442995861,0.01628320641086144,-0.17159000039100647,-0.409487783908844,-0.8960338234901428,0.027103371966361523,-0.0010890041929870213,0.008103022855572104,0.9995992220059033,-0.004309379495680332,0.004867563024163246,0.003974381368607283,0.003322690725326538,-0.011991798877716064,-0.012357771396636963
2025-09-20T02:23:54Z,-0.0025189301897110966,0.05412695214581803,0.016369828102353184,-0.17153051495552063,-0.4094131290912628,-0.8960793614387512,0.02706954926787522,-0.0010374788429255127,0.008147738728752596,0.9995998116361403,-0.0016435792203992605,0.00365343876183033,0.0018099599983543158,0.002539590001106262,-0.012045025825500488,-0.012504220008850098
2025-09-20T02:23:54Z,-0.0024398909937700546,0.05412486043805526,0.016357428676175092,-0.1714552342891693,-0.4094133675098419,-0.8960936665534973,0.027068175005575276,-0.000998151453344805,0.008142612588689513,0.9995999536514559,-0.0009261101367883384,2.0404113456606865e-05,0.0006862257141619921,0.002541854977607727,-0.011005103588104248,-0.011210143566131592
2025-09-20T02:23:54Z,-0.0024302941355674053,0.05409763249663208,0.016337260390391243,-0.17143939435482025,-0.409392386674881,-0.8961062431335449,0.027054516970779364,-0.0009937395072940178,0.00813268178299966,0.9996004242941412,-0.0029397348407655954,-0.0027701796498149633,-0.0005370837170630693,0.0028226226568222046,-0.009382456541061401,-0.010957300662994385
2025-09-20T02:23:54Z,-0.002527061502826175,0.05403025795334486,0.01633016952787302,-0.17152363061904907,-0.409333199262619,-0.8961172103881836,0.027021232216024503,-0.0010424758642834646,0.00812787853198725,0.9996013403808421,-0.004956172779202461,-0.005582342855632305,0.0018554481212049723,0.00334717333316803,-0.008274585008621216,-0.011954903602600098
2025-09-20T02:23:54Z,-0.002685832139025572,0.05392454435108183,0.01642503730303183,-0.17170020937919617,-0.4092223644256592,-0.8961339592933655,0.026969094844988148,-0.0011209836061881625,0.008173231043628193,0.9996022936093375,-0.0042235031723976135,-0.0076993233524262905,0.004990161396563053,0.002936333417892456,-0.008423477411270142,-0.011880278587341309
2025-09-20T02:23:54Z,-0.002844589091286112,0.05381884611959958,0.01651988507531383,-0.17187677323818207,-0.4091115891933441,-0.8961507081985474,0.026916971988686488,-0.0011994898680451906,0.0082185820384209,0.9996032494599901,-0.003490833332762122,-0.009816303849220276,0.008124874904751778,0.0025254786014556885,-0.008572369813919067,-0.011805713176727295
2025-09-20T02:23:54Z,-0.002986537208445317,0.05376941852187966,0.016722303639211105,-0.1720769703388214,-0.40903303027153015,-0.896148145198822,0.026892980024737702,-0.0012679190008444631,0.008317883213685486,0.9996029777324136,-0.00027512083761394024,-0.007128034718334675,0.009593762457370758,0.003705129027366638,-0.009176671504974365,-0.012608826160430908
2025-09-20T02:23:54Z,-0.0031129217669126252,0.053794844191931514,0.016966862794866297,-0.1722782701253891,-0.40901437401771545,-0.8961179852485657,0.026906378421532342,-0.0013276893847496405,0.008438392805717964,0.9996014367763648,0.0022548488341271877,-0.0038074194453656673,0.011446121148765087,0.0034437328577041626,-0.009363323450088501,-0.012355566024780273
2025-09-20T02:23:54Z,-0.0031557716824176275,0.05388186917267268,0.017212890061379455,-0.1724051833152771,-0.40905076265335083,-0.8960769772529602,0.026950219050363888,-0.0013454196936671832,0.00856070186735964,0.9995992275319796,0.005085159093141556,-0.0009638769552111626,0.011135860346257687,0.0026905834674835205,-0.010144621133804321,-0.012457847595214844
2025-09-20T02:23:54Z,-0.0031630110099811113,0.05399525138746127,0.01745955657683612,-0.1725003719329834,-0.4091106355190277,-0.8960313200950623,0.027007084684292193,-0.0013452169103501316,0.008683785183554612,0.9995966227985654,0.005472040735185146,-0.0011356205213814974,0.009061075747013092,0.0022601932287216187,-0.011263936758041382,-0.012548863887786865
2025-09-20T02:23:54Z,-0.0032213986861251757,0.05409068867698497,0.01765746058771203,-0.17262382805347443,-0.4091626703739166,-0.8959837555885315,0.027055173363010374,-0.0013713033235296355,0.008781820578556365,0.9995944295536486,0.004818928427994251,-0.0025907582603394985,0.0062352558597922325,0.0020777136087417603,-0.01173853874206543,-0.012587428092956543
2025-09-20T02:23:54Z,-0.00329035969864642,0.05417923994842355,0.017768809108488937,-0.1727256029844284,-0.40922316908836365,-0.8959365487098694,0.027099812418497918,-0.0014038683799136125,0.008836456049693775,0.99959267695369,0.0042922901920974255,-0.0022076524328440428,0.0024697824846953154,0.0031316280364990234,-0.012497365474700928,-0.012682199478149414
2025-09-20T02:23:54Z,-0.0032834220504918917,0.054243997113066475,0.017765001964117403,-0.17271792888641357,-0.4092818796634674,-0.8959112167358398,0.027132144091269517,-0.0014001636091323117,0.008834586210536725,0.9995918350299935,0.0026236302219331264,-9.741564281284809e-05,-0.0012088015209883451,0.0031521469354629517,-0.011941254138946533,-0.012838304042816162
2025-09-20T02:23:54Z,-0.0032166367614910886,0.05427503010227715,0.0176655339509208,-0.17262223362922668,-0.40932658314704895,-0.8959091901779175,0.027147291008858345,-0.0013679962827420043,0.008785749772040764,0.9995919061590128,-9.711366146802902e-07,0.0027168230153620243,-0.0033183549530804157,0.0031607747077941895,-0.011707067489624023,-0.012904047966003418
2025-09-20T02:23:54Z,-0.003116219545843515,0.05421580792470851,0.017548956878740696,-0.17249035835266113,-0.4092932343482971,-0.8959498405456543,0.027117174492019124,-0.0013196515012799867,0.008728901348284024,0.9995932679541228,-0.004325537942349911,0.004410176072269678,-0.005190826486796141,0.0041127800941467285,-0.010998040437698364,-0.011787474155426025
2025-09-20T02:23:54Z,-0.0030546766283547967,0.05411554297876142,0.01745714379054334,-0.1724022775888443,-0.4092188775539398,-0.8960007429122925,0.02706673457692071,-0.0012905768908083816,0.008683936282173394,0.9995950646502749,-0.005856886971741915,0.000958502059802413,-0.005117182619869709,0.0034989267587661743,-0.010641723871231079,-0.009946823120117188
2025-09-20T02:23:54Z,-0.0031417280918026916,0.05402835227905664,0.017564109456323744,-0.17251890897750854,-0.40912261605262756,-0.8960222601890564,0.02702360583507821,-0.0013330219213778124,0.008736298033044055,0.9995957319533865,-0.005902779288589954,0.004433757625520229,-0.0011930698528885841,0.004359647631645203,-0.01124313473701477,-0.011338472366333008
2025-09-20T02:23:54Z,-0.0032287844637789,0.053941154363491846,0.017671070279304136,-0.17263555526733398,-0.4090263247489929,-0.8960437774658203,0.026980477833259624,-0.0013754742093145993,0.008788661094993464,0.9995964000149219,-0.005948671139776707,0.007909012958407402,0.0027310429140925407,0.005220383405685425,-0.011844545602798462,-0.012730121612548828
2025-09-20T02:23:54Z,-0.0033158192897309565,0.05385391721623532,0.017778023195833177,-0.17275218665599823,-0.4089299738407135,-0.8960652947425842,0.026937334576682424,-0.0014179207199316926,0.00884102436271234,0.999597064695876,-0.005994563456624746,0.011384268291294575,0.006655156146734953,0.006081104278564453,-0.012446016073226929,-0.014121770858764648
2025-09-20T02:23:54Z,-0.0034028338733236843,0.05376674779693504,0.01788496114696687,-0.1728687733411789,-0.40883368253707886,-0.8960867524147034,0.02689423085660478,-0.001460361769400319,0.008893384622832654,0.9995976750637581,-0.006040455307811499,0.014859523624181747,0.010579269379377365,0.006941765546798706,-0.013047456741333008,-0.01551353931427002
2025-09-20T02:23:54Z,-0.0034898729802121755,0.053679541844216014,0.017991885836959418,-0.17298538982868195,-0.40873733162879944,-0.8961081504821777,0.026851113343415986,-0.001502820124730119,0.008945741764591312,0.9995982850663547,-0.006086347624659538,0.018334779888391495,0.01450338214635849,0.007802486419677734,-0.013648897409439087,-0.016905248165130615
2025-09-20T02:23:54Z,-0.0030954781195954447,0.05351337448382533,0.01819458268395649,-0.17270514369010925,-0.40855392813682556,-0.8962458372116089,0.02676643043802964,-0.0013037397300539866,0.00905249297339156,0.999599882761618,-0.010119094513356686,0.03529839217662811,0.013446683064103127,0.009004950523376465,-0.014365613460540771,-0.018503010272979736
2025-09-20T02:23:54Z,-0.0024036141145426675,0.05326857817729333,0.018376725643904676,-0.1721508502960205,-0.40830349922180176,-0.8964666128158569,0.02664103455139949,-0.0009566368345781287,0.009152963682438904,0.9996027332702654,-0.018353737890720367,0.035100508481264114,0.010859175585210323,0.005434945225715637,-0.011906325817108154,-0.014402508735656738
2025-09-20T02:23:54Z,-0.0018064976301806017,0.052823709087239386,0.0185579874215752,-0.17168110609054565,-0.4078736901283264,-0.8967522978782654,0.026416013485343705,-0.0006578514635458201,0.009251767558918555,0.9996080420299849,-0.027045756578445435,0.021021727472543716,0.007918594405055046,0.001771882176399231,-0.00866609811782837,-0.010368585586547852
2025-09-20T02:23:54Z,-0.0015620090877970995,0.05225255694383828,0.01871605564300059,-0.17151911556720734,-0.40733441710472107,-0.897028386592865,0.026129459546095045,-0.0005362447573390685,0.009334292896916598,0.9996148838065572,-0.03006865456700325,0.009434076957404613,0.005925645120441914,0.00253373384475708,-0.009684115648269653,-0.009338736534118652
2025-09-20T02:23:54Z,-0.001459211880510287,0.05170613455790573,0.01877355617857324,-0.17144791781902313,-0.40683430433273315,-0.8972688913345337,0.025855886761309076,-0.00048668358428773854,0.009364640942758467,0.99962174469509,-0.02505122870206833,-0.0009752698242664337,0.0017900345847010612,0.0024901628494262695,-0.010926216840744019,-0.008181273937225342
2025-09-20T02:23:54Z,-0.0015314391504579225,0.051242793981896614,0.01883081227093186,-0.17153362929821014,-0.4064086675643921,-0.8974453806877136,0.02562465635850744,-0.0005242284207012211,0.009392557727230074,0.999627431906221,-0.02007068507373333,-0.0065555451437830925,0.0018551030661910772,0.002215057611465454,-0.010117977857589722,-0.008198440074920654
2025-09-20T02:23:54Z,-0.0017118251923906535,0.050915634173029106,0.018912054930108953,-0.17172494530677795,-0.4061010777950287,-0.8975480198860168,0.02546201168247213,-0.0006148967591211022,0.009431033081421208,0.9996310762656052,-0.013904288411140442,-0.007914990186691284,0.004901971202343702,0.002217501401901245,-0.009262412786483765,-0.010316610336303711
2025-09-20T02:23:54Z,-0.001813317553603273,0.05067699941284966,0.01902121230034584,-0.17185549437999725,-0.405868262052536,-0.8976283073425293,0.025343252990623993,-0.0006653716544875906,0.00948443642609662,0.999633560745471,-0.010496184229850769,-0.0019389307126402855,0.006527377758175135,0.002834498882293701,-0.009691983461380005,-0.013587117195129395
2025-09-20T02:23:54Z,-0.00179445246664353,0.050426868412623276,0.019148611467873746,-0.17188459634780884,-0.4056220054626465,-0.8977341055870056,0.025218184927590506,-0.0006555280624473991,0.0095484939175833,0.9996361434947638,-0.010644813068211079,0.0057246265932917595,0.0068018329329788685,0.0031479299068450928,-0.010267138481140137,-0.015325546264648438
2025-09-20T02:23:54Z,-0.0015925038783383416,0.050206167158020676,0.01923359959952911,-0.1717340350151062,-0.4054093360900879,-0.8978589177131653,0.025106933277199817,-0.0005545819970831512,0.009593633248438649,0.9996385872414424,-0.011552675627171993,0.007371997460722923,0.004892257042229176,0.0028501152992248535,-0.010927915573120117,-0.014862596988677979
2025-09-20T02:23:54Z,-0.0014401742228184564,0.04996384929923791,0.019283228170675317,-0.17161525785923004,-0.40518325567245483,-0.897983729839325,0.02498509882328873,-0.0004789916702486923,0.009620467153496697,0.9996414326151969,-0.014335623010993004,0.003490905975922942,0.0015652822330594063,0.0023561418056488037,-0.010399729013442993,-0.013042330741882324
2025-09-20T02:23:54Z,-0.0014141626331384723,0.049653970938723785,0.01932013677184103,-0.17160536348819733,-0.40489864349365234,-0.8981139659881592,0.02483009814065354,-0.00046702842233074294,0.009639386449472756,0.9996451307612595,-0.015809213742613792,0.0011033520568162203,0.0009789603063836694,0.002158522605895996,-0.010188430547714233,-0.012314200401306152
2025-09-20T02:23:54Z,-0.0014674787019005747,0.04934175736005597,0.01940050376779429,-0.17168234288692474,-0.4046044647693634,-0.8982318043708801,0.02467432356065842,-0.0004941958456995539,0.009679045807931622,0.9996485830648592,-0.014341771602630615,-0.007800360210239887,0.002116122283041477,0.0016386806964874268,-0.0089033842086792,-0.009960651397705078
2025-09-20T02:23:54Z,-0.001457721908647688,0.049116910755538465,0.019423091839314788,-0.17168185114860535,-0.4043986201286316,-0.8983246088027954,0.024561897222895746,-0.0004901339634994322,0.009690564733873168,0.999651272631372,-0.01151228602975607,-0.0018530599772930145,0.001118615735322237,0.0023277252912521362,-0.009635001420974731,-0.011321306228637695
2025-09-20T02:23:54Z,-0.0014479553174540833,0.0488920837772711,0.019445681160732062,-0.17168132960796356,-0.404192715883255,-0.8984173536300659,0.024449481392163155,-0.00048606958024617283,0.009702083685912587,0.9996539026404978,-0.008682800456881523,0.004094240255653858,0.00012110918760299683,0.003016754984855652,-0.010366588830947876,-0.012682020664215088
2025-09-20T02:23:54Z,-0.001337253012253306,0.04872960842220694,0.019481833244763873,-0.17159497737884521,-0.4040405750274658,-0.8985022902488708,0.02436774197706083,-0.00043108805488400055,0.009721580156349488,0.9996557564157597,-0.007170157507061958,0.004587163683027029,0.001568897976540029,0.002467811107635498,-0.008939266204833984,-0.011692225933074951
2025-09-20T02:23:54Z,-0.0012388878270263263,0.048535624569742475,0.019491784481579,-0.17151027917861938,-0.4038645327091217,-0.8985975980758667,0.024270306661039204,-0.00038274759643352216,0.009727835383998497,0.9996581038813734,-0.007664798758924007,0.0016703924629837275,-5.67571260035038e-06,0.0028775036334991455,-0.0088728666305542,-0.011555790901184082
2025-09-20T02:23:54Z,-0.0012179064803396914,0.04835162342682801,0.019504353832638113,-0.17149604856967926,-0.40369701385498047,-0.8986756205558777,0.024178237686847615,-0.00037300626625846395,0.00973445022068629,0.999660277812152,-0.009741839952766895,0.0017236087005585432,-0.0020656229462474585,0.0031044185161590576,-0.00925523042678833,-0.011928439140319824
2025-09-20T02:23:54Z,-0.0011432616237751192,0.04814972144088597,0.01943566715249172,-0.17140430212020874,-0.4035271406173706,-0.8987693786621094,0.024076948279075784,-0.0003375089747709495,0.009701103197625733,0.9996629647708327,-0.009826604276895523,0.0034361425787210464,-0.004381789825856686,0.003639429807662964,-0.010326743125915527,-0.011952519416809082
2025-09-20T02:23:54Z,-0.001065031710934119,0.047966527861984624,0.019314882434290984,-0.17129062116146088,-0.4033829867839813,-0.8988557457923889,0.02398498479121188,-0.00030074673282707844,0.00964174299113622,0.9996657570080888,-0.007107134442776442,0.003775667631998658,-0.006208886858075857,0.0037978142499923706,-0.011989504098892212,-0.012440264225006104
2025-09-20T02:23:54Z,-0.0009674907901964358,0.04789889200159924,0.019164906202442874,-0.17114900052547455,-0.4033477008342743,-0.8988986015319824,0.02395068918971511,-0.0002541154745105212,0.009567973887602563,0.9996672892158784,-0.0009272852912545204,0.005710577592253685,-0.006194490473717451,0.004490479826927185,-0.013138532638549805,-0.012886345386505127
2025-09-20T02:23:54Z,-0.0007804088283034505,0.04790799783664744,0.018986064632732978,-0.17091646790504456,-0.40338632464408875,-0.8989254832267761,0.02395433043152352,-0.00016270397438058443,0.009480820087845166,0.9996680765974371,0.002342816675081849,0.007341150194406509,-0.008564390242099762,0.004811018705368042,-0.012337148189544678,-0.012579917907714844
2025-09-20T02:23:54Z,-0.0006317328750650057,0.04796964464673705,0.018809122661455516,-0.17071911692619324,-0.40347179770469666,-0.8989246487617493,0.023984431164750995,-9.021984027434371e-05,0.009394142561179654,0.9996681692642376,0.001006357022561133,0.0047451225109398365,-0.0067922030575573444,0.004920199513435364,-0.010363548994064331,-0.011549770832061768
2025-09-20T02:23:54Z,-0.000551027964578604,0.04799470690190357,0.018600906176207913,-0.17057162523269653,-0.40352970361709595,-0.8989266157150269,0.023996573993394325,-5.226111367410856e-05,0.009291030489684502,0.9996688330044079,-0.000851560034789145,-0.00109011959284544,-0.008381810039281845,0.003524601459503174,-0.010686814785003662,-0.011169254779815674
2025-09-20T02:23:54Z,-0.0006056001619657944,0.04794533892492168,0.0183820609445318,-0.1705419272184372,-0.4035225212574005,-0.8989354968070984,0.02397214204964118,-8.239096657352687e-05,0.00918100189497472,0.9996704653672256,-0.004581997636705637,-0.004689199849963188,-0.008166566491127014,0.004427015781402588,-0.009723037481307983,-0.01100468635559082
2025-09-20T02:23:55Z,-0.0007332512842996463,0.047812046294988995,0.018233652997723178,-0.17060329020023346,-0.4034278690814972,-0.8989663124084473,0.023906092470129234,-0.00014858237313667701,0.009105331205400743,0.999672738154299,-0.006755547598004341,-0.007786343805491924,-0.006556184962391853,0.004137188196182251,-0.008847475051879883,-0.010683178901672363
2025-09-20T02:23:55Z,-0.0009065759924063645,0.04767245705333199,0.018091816576507568,-0.1707080900669098,-0.40332645177841187,-0.8989919424057007,0.023837092454368748,-0.00023754372228006583,0.009032410932942114,0.999675047237607,-0.0055714999325573444,-0.007674532942473888,-0.0035054939799010754,0.003403410315513611,-0.00968119502067566,-0.011219263076782227
2025-09-20T02:23:55Z,-0.0010381406576859093,0.047561104318531326,0.018075797733748674,-0.17082065343856812,-0.4032290577888489,-0.8990142345428467,0.023782025464208677,-0.0003039993389131094,0.009022876760777955,0.9996764429081291,-0.002860869513824582,-0.004638275131583214,0.00020039896480739117,0.0038807839155197144,-0.009660482406616211,-0.011632263660430908
2025-09-20T02:23:55Z,-0.0011053843010051126,0.047566472058519334,0.018133734501337966,-0.17090195417404175,-0.40322405099868774,-0.8990010619163513,0.02378502216008217,-0.0003368969787894072,0.009051034321272747,0.9996760824276631,-0.0008896973449736834,-0.0036335978657007217,0.002043484477326274,0.0034507811069488525,-0.010389119386672974,-0.011632204055786133
2025-09-20T02:23:55Z,-0.0011726282739247843,0.04757183608608722,0.018191671710833232,-0.17098325490951538,-0.4032190144062042,-0.8989878296852112,0.02378801885595566,-0.000369794618665676,0.009079191881767541,0.9996757219471972,0.0010814748238772154,-0.0026289205998182297,0.0038865699898451567,0.0030207931995391846,-0.011117756366729736,-0.011632144451141357
2025-09-20T02:23:55Z,-0.0012006888455584571,0.047628369017743186,0.0182800114403653,-0.17104026675224304,-0.4032548666000366,-0.8989609479904175,0.023816420108934484,-0.0003825109533755278,0.009122990422796285,0.999674656027431,0.0015582346823066473,-0.0011730691185221076,0.0018165891524404287,0.0035006850957870483,-0.011903464794158936,-0.011892735958099365
2025-09-20T02:23:55Z,-0.0012855868276021884,0.04767285960866055,0.018326607225367858,-0.17113333940505981,-0.40328696370124817,-0.8989288210868835,0.02383905481451663,-0.0004241871313222873,0.00914525041127339,0.9996739159652793,0.0008550573256798089,-0.0021175271831452847,-0.0010681913699954748,0.0041387975215911865,-0.01314389705657959,-0.011866092681884766
2025-09-20T02:23:55Z,-0.001305728555151338,0.04769022490748974,0.018273070649810336,-0.1711321771144867,-0.40331169962882996,-0.8989179730415344,0.023847814409857834,-0.0004348134027733678,0.009118242950490936,0.9996739779787233,-0.00042948563350364566,-0.003129680408164859,-0.0033842166885733604,0.0035308897495269775,-0.01213926076889038,-0.012545108795166016
2025-09-20T02:23:55Z,-0.0014124520540862418,0.04763610265272933,0.018183243588122632,-0.17119580507278442,-0.40327826142311096,-0.8989208340644836,0.02382122675504388,-0.000489475271051578,0.00907209648174375,0.9996750033047139,-0.0033304993994534016,-0.005695154424756765,-0.005943366326391697,0.003881484270095825,-0.011854290962219238,-0.012622714042663574
2025-09-20T02:23:55Z,-0.001512714148051368,0.04758488473863781,0.018024790025920688,-0.17122891545295715,-0.40325912833213806,-0.8989230990409851,0.02379603726317382,-0.000541708519673222,0.008991725799443108,0.9996763352533466,-0.004039224702864885,-0.005783082917332649,-0.0076771327294409275,0.004780367016792297,-0.011403888463973999,-0.012862682342529297
2025-09-20T02:23:55Z,-0.0015926714170021482,0.04750819876703962,0.01786151227032919,-0.17124205827713013,-0.4032178819179535,-0.8989391326904297,0.02375801859630378,-0.000583959972454536,0.008909200670840452,0.9996779528212605,-0.004680180922150612,-0.006688892841339111,-0.007545133121311665,0.004791095852851868,-0.010827779769897461,-0.011681079864501953
2025-09-20T02:23:55Z,-0.0017400901633444223,0.04744535495346534,0.01770983919307574,-0.17131996154785156,-0.40318700671195984,-0.8989381194114685,0.023727216064209695,-0.0006597261984290516,0.008831672224197,0.999679216388868,-0.001426829257979989,-0.007579468190670013,-0.006427247077226639,0.00409245491027832,-0.011382043361663818,-0.011472046375274658
2025-09-20T02:23:55Z,-0.001858025251361603,0.04744617363544622,0.01759532957265537,-0.17138473689556122,-0.4032071530818939,-0.8989167213439941,0.02372810495984765,-0.0007200297468072152,0.008773036197132492,0.9996796644371941,0.0009131901897490025,-0.004673922434449196,-0.0037817766424268484,0.0051889121532440186,-0.011334121227264404,-0.011428296566009521
2025-09-20T02:23:55Z,-0.00200688716671303,0.047495919392648016,0.017617464092864302,-0.1715264916419983,-0.4032481610774994,-0.8988713026046753,0.023753631096578267,-0.0007939546181238576,0.008782303460383058,0.9996789404173149,0.0024612334091216326,-0.006634467281401157,0.0019279199186712503,0.003499537706375122,-0.008914291858673096,-0.00973135232925415
2025-09-20T02:23:55Z,-0.002167136175467704,0.047563760937745295,0.017690090254895284,-0.17169663310050964,-0.4032968580722809,-0.8988169431686401,0.02378827579425876,-0.0008728899789733297,0.008816657553700627,0.9996777680648684,0.001312574022449553,-0.0037652107421308756,0.007224987260997295,0.002824842929840088,-0.00961923599243164,-0.01189965009689331
2025-09-20T02:23:55Z,-0.0021012934900780825,0.04759574084948152,0.01790172251986041,-0.17171363532543182,-0.4032897353172302,-0.8988168835639954,0.02380405848145665,-0.000837318596536779,0.008923202265571868,0.9996765014593479,0.000628253968898207,0.01068065408617258,0.008396227844059467,0.006369888782501221,-0.012446701526641846,-0.01569920778274536
2025-09-20T02:23:55Z,-0.0017033749823197194,0.04760091067057276,0.018046830225043223,-0.17140822112560272,-0.40326976776123047,-0.8988841772079468,0.023804912491110938,-0.0006366733800973772,0.009000465548154044,0.9996759571663542,-0.003516540862619877,0.027347542345523834,0.005975383333861828,0.007147058844566345,-0.013814359903335571,-0.01771390438079834
2025-09-20T02:23:55Z,-0.0010416703888998088,0.04749261784063633,0.018145164489492396,-0.17084883153438568,-0.40315571427345276,-0.8990418314933777,0.023747819478471894,-0.0003052497998525757,0.009057532015013844,0.9996769569573916,-0.012546501122415066,0.028217867016792297,0.0054476577788591385,0.004196137189865112,-0.010100722312927246,-0.014305830001831055
2025-09-20T02:23:55Z,-0.0007528103499973834,0.047151855175849876,0.018255009998953162,-0.17062878608703613,-0.40283066034317017,-0.8992292881011963,0.02357619258210327,-0.0001611184518309337,0.009115967424518584,0.999680553913125,-0.013862848281860352,0.015298261307179928,0.004191423766314983,0.003710433840751648,-0.009950190782546997,-0.01181650161743164
2025-09-20T02:23:55Z,-0.000463886711497057,0.04681109071334292,0.01836492506609106,-0.17040857672691345,-0.40250542759895325,-0.8994166254997253,0.023404550665724895,-1.6972148215762376e-05,0.009174390325969598,0.9996839642934248,-0.015179196372628212,0.0023786555975675583,0.0029351902194321156,0.0032245516777038574,-0.009799748659133911,-0.009327292442321777
2025-09-20T02:23:55Z,-0.0004920521261030915,0.04651202818236222,0.018415270013192778,-0.1704520881175995,-0.40222784876823425,-0.8995325565338135,0.023255196785722732,-3.183853861785069e-05,0.00919929428429768,0.999687204629186,-0.007995497435331345,-0.006852550432085991,0.0010614251950755715,0.0035185515880584717,-0.010714948177337646,-0.008301138877868652
2025-09-20T02:23:55Z,-0.0007105279463740942,0.04639265681230008,0.018427076231911057,-0.17065288126468658,-0.402118444442749,-0.8995434045791626,0.023196535687860818,-0.00014145525038463094,0.00920268924835203,0.9996885119140223,-0.0024852254427969456,-0.013381152413785458,0.00216644536703825,0.0027532726526260376,-0.009532690048217773,-0.008640110492706299
2025-09-20T02:23:55Z,-0.0009818939352512384,0.04636703006581153,0.0185149270352837,-0.17092862725257874,-0.4020804762840271,-0.899507999420166,0.02318498646759235,-0.00027619575382918605,0.009243462370440245,0.999688393941734,-0.0021172829438000917,-0.012937812134623528,0.004905495792627335,0.0026022344827651978,-0.008539319038391113,-0.011040270328521729
2025-09-20T02:23:55Z,-0.0010578109946989768,0.046348762232023805,0.018649654295978306,-0.17104540765285492,-0.40204113721847534,-0.8995034098625183,0.02317622793290009,-0.0003126658650901541,0.009309931948276373,0.9996879449618727,-0.0028532762080430984,-0.008752739056944847,0.004342060070484877,0.00270061194896698,-0.009142488241195679,-0.01220691204071045
2025-09-20T02:23:55Z,-0.001133723260934205,0.04633048622565016,0.01878439472114343,-0.1711621880531311,-0.4020017683506012,-0.8994987607002258,0.02316747015663197,-0.0003491346652723891,0.009376408783479834,0.9996874952419875,-0.003589269705116749,-0.004567665047943592,0.003778624115511775,0.002799004316329956,-0.009745568037033081,-0.013373494148254395
2025-09-20T02:23:55Z,-0.0012096344458327063,0.04631225151803256,0.01891912712681808,-0.17127899825572968,-0.401962548494339,-0.8994941115379333,0.02315873491050785,-0.0003856040274178154,0.009442881015942772,0.9996871725033483,-0.004325263202190399,-0.00038259103894233704,0.0032151881605386734,0.002897411584854126,-0.010348588228225708,-0.014540255069732666
2025-09-20T02:23:55Z,-0.001286286938860469,0.04621746050272024,0.019028140067001903,-0.1713872253894806,-0.40185871720314026,-0.8995198607444763,0.023111739643950246,-0.0004231074609820154,0.00949652390065203,0.9996877180777292,-0.004692743998020887,-0.0015569510869681835,0.0019987821578979492,0.0024725794792175293,-0.011026442050933838,-0.013691365718841553
2025-09-20T02:23:55Z,-0.00136945997406726,0.046123905781291163,0.019032447597782512,-0.17146363854408264,-0.4017737805843353,-0.8995432257652283,0.023065373175956888,-0.0004650769694535911,0.009497758300944311,0.9996887419483974,-0.0032291847746819258,-0.001255934708751738,0.0011346442624926567,0.0018632560968399048,-0.01173064112663269,-0.012131571769714355
2025-09-20T02:23:55Z,-0.0015352642376579913,0.04611192003147741,0.019083261391836345,-0.1716310828924179,-0.40175437927246094,-0.8995199799537659,0.023060182626431933,-0.0005474245227724166,0.009521250687828723,0.9996886295626319,-7.045106031000614e-05,-0.012384765781462193,-0.0004273260710760951,0.0015800148248672485,-0.011225402355194092,-0.008765697479248047
2025-09-20T02:23:55Z,-0.0016303224907625047,0.046162917185158484,0.019057559245527954,-0.17170731723308563,-0.401804655790329,-0.8994829654693604,0.023086117916492472,-0.0005949918168415867,0.009507281112762103,0.999688145137491,0.0017155796522274613,-0.004449963569641113,-0.0015036143595352769,0.005831122398376465,-0.011768847703933716,-0.013351082801818848
2025-09-20T02:23:55Z,-0.0015943307558086309,0.04624196627823399,0.019008336125052906,-0.17165717482566833,-0.40188413858413696,-0.8994570374488831,0.0231254448002339,-0.0005771934744035513,0.009483052502404233,0.9996874770545044,0.0018779579550027847,0.0038605034351348877,-0.0019236482912674546,0.005279183387756348,-0.010350048542022705,-0.014119744300842285
2025-09-20T02:23:55Z,-0.0014941138196380207,0.046303117528432684,0.018972741246778425,-0.17155417799949646,-0.40194520354270935,-0.8994494080543518,0.02315552685018256,-0.0005272217399989578,0.009466390090632644,0.9996869406589758,0.00036175164859741926,0.0030893771909177303,0.001179022598080337,0.0029323995113372803,-0.008830249309539795,-0.011238396167755127
2025-09-20T02:23:55Z,-0.0015004095724624386,0.046293022478512434,0.01901792903641907,-0.1715761125087738,-0.4019284248352051,-0.8994526863098145,0.023150522850710835,-0.0005298935278896042,0.009488908982309092,0.9996868344631593,-0.0008019796805456281,0.0001256200484931469,0.0029465851839631796,0.0023941248655319214,-0.008293986320495605,-0.011114418506622314
2025-09-20T02:23:55Z,-0.00148295011980596,0.04627461608117765,0.018995450340850446,-0.17155233025550842,-0.40191569924354553,-0.8994629383087158,0.02314123335731355,-0.0005215142723851576,0.009477883898957764,0.9996871793712684,-7.461139466613531e-05,-0.00043929775711148977,0.00017387676052749157,0.0025391578674316406,-0.009590208530426025,-0.01131981611251831
2025-09-20T02:23:55Z,-0.0014654910963793112,0.04625620931677823,0.018972971995822,-0.17152854800224304,-0.401902973651886,-0.8994731903076172,0.023131943863916263,-0.0005131350168806763,0.009466858815606403,0.9996875242793775,0.0006527568912133574,-0.0010042155627161264,-0.0025988316629081964,0.002684161067008972,-0.010886430740356445,-0.011525273323059082
2025-09-20T02:23:55Z,-0.0014373931887882128,0.046308931288837674,0.01888563285192104,-0.17147181928157806,-0.40196526050567627,-0.8994561433792114,0.02315814176743508,-0.0004998513204192607,0.009423503157046771,0.9996873348804219,0.0016916169552132487,0.0006316546350717545,-0.00518010463565588,0.00287628173828125,-0.012215912342071533,-0.0125197172164917
2025-09-20T02:23:55Z,-0.0013645832375266645,0.04641739549147699,0.018718155621804667,-0.17134599387645721,-0.40209129452705383,-0.8994237780570984,0.023211975207042518,-0.00046488865575137827,0.009340585120180066,0.9996868695350328,0.005671889986842871,0.0035527378786355257,-0.0077659436501562595,0.003480255603790283,-0.012323141098022461,-0.012209773063659668
2025-09-20T02:23:55Z,-0.001314332264540986,0.0466006612639261,0.01847941500026152,-0.1712147742509842,-0.4022967517375946,-0.8993569016456604,0.02330329128353695,-0.0004416940080405561,0.009221755166463872,0.9996858901958485,0.006629340350627899,0.0029929482843726873,-0.012620879337191582,0.003955408930778503,-0.012344807386398315,-0.012977302074432373
2025-09-20T02:23:55Z,-0.0012813837916526103,0.04675081074679332,0.018221118008423014,-0.17109204828739166,-0.40247562527656555,-0.899300217628479,0.023378137405062473,-0.00042754961112992926,0.009092967814979865,0.9996852428221149,0.005078843329101801,0.00026717246510088444,-0.01393017265945673,0.004585251212120056,-0.011559098958969116,-0.012120723724365234
2025-09-20T02:23:55Z,-0.0012833651978391353,0.04685892873122651,0.017938925313315663,-0.1709921807050705,-0.40262076258659363,-0.8992542624473572,0.023432127823718465,-0.00043135301685192105,0.008951846644057692,0.9996852460661121,0.0007652072235941887,-0.0021374572534114122,-0.011726858094334602,0.004240065813064575,-0.009843587875366211,-0.011498987674713135
2025-09-20T02:23:55Z,-0.0013768935510119341,0.046831721724636705,0.017694289132576865,-0.17098820209503174,-0.402637779712677,-0.899247407913208,0.02341888882239594,-0.0004810892333174507,0.008828483482540835,0.9996866183303258,-0.002136352239176631,-0.007534348405897617,-0.008625310845673084,0.004052072763442993,-0.008819580078125,-0.010823428630828857
2025-09-20T02:23:55Z,-0.0015328117131515363,0.04678623205870781,0.017516025424898343,-0.17106425762176514,-0.4026270806789398,-0.8992376923561096,0.02339678876741286,-0.0005613108601932236,0.008737575647565912,0.9996879183954769,-0.001189518952742219,-0.009763468988239765,-0.005072509869933128,0.004405021667480469,-0.009036839008331299,-0.009996175765991211
2025-09-20T02:23:55Z,-0.0017123591554312036,0.04679309969136943,0.01743114236507747,-0.1711951196193695,-0.40264764428138733,-0.8992035984992981,0.023400978671926833,-0.0006520196074310232,0.008693043452121779,0.9996881320613503,0.00021590187679976225,-0.009806145913898945,-0.0025722875725477934,0.004050359129905701,-0.009908676147460938,-0.010845363140106201
2025-09-20T02:23:55Z,-0.001912370602423026,0.046816735999438704,0.017453577315896068,-0.17138303816318512,-0.4026651084423065,-0.8991599678993225,0.023413670690244748,-0.000751628262057965,0.008701903400847314,0.9996876927046467,0.001340784365311265,-0.006420719437301159,0.0023909190203994513,0.004405662417411804,-0.00971907377243042,-0.012425065040588379
2025-09-20T02:23:55Z,-0.002029520206446807,0.04688041490715673,0.017492734271702497,-0.17150241136550903,-0.4027157425880432,-0.8991145491600037,0.02344602610411523,-0.0008094472076195998,0.0087200656240303,0.9996867137329062,0.0023718306329101324,-0.002537223743274808,0.003315442241728306,0.005014166235923767,-0.010670274496078491,-0.012813866138458252
2025-09-20T02:23:55Z,-0.002070813496401694,0.04696016160613359,0.01757718639585234,-0.17156989872455597,-0.4027731716632843,-0.8990759253501892,0.02348610139401277,-0.0008287460353326621,0.008761744658507825,0.9996854176553466,0.0035504272673279047,-0.0023855185136198997,0.004831723403185606,0.004119396209716797,-0.01136702299118042,-0.011829733848571777
2025-09-20T02:23:55Z,-0.002116293866280582,0.047014060347605524,0.017659166543253384,-0.17164026200771332,-0.40280774235725403,-0.8990470170974731,0.02351327609003651,-0.0008502778027911549,0.008802153545481044,0.9996844179746989,0.002985290251672268,-0.003946825861930847,0.0030615455470979214,0.0032037198543548584,-0.011497288942337036,-0.01169663667678833
2025-09-20T02:23:55Z,-0.002211497679562046,0.04705667960552117,0.017700332632430465,-0.17174063622951508,-0.4028390944004059,-0.8990138173103333,0.023535016772018046,-0.0008971916160510367,0.00882158294445222,0.99968367928165,0.0008586172480136156,-0.004032180644571781,-6.085634231567383e-05,0.004295572638511658,-0.012643575668334961,-0.012217462062835693
2025-09-20T02:23:55Z,-0.002253825224817254,0.04704596224165711,0.01753632142626625,-0.17171964049339294,-0.40285724401474,-0.899009644985199,0.023529771175666965,-0.0009203258259468526,0.008739112334872493,0.9996845023304729,-0.0010469689732417464,-0.0041998908855021,-0.004050860181450844,0.0040481239557266235,-0.012265384197235107,-0.011866927146911621
2025-09-20T02:23:55Z,-0.0022961376681111664,0.04703525260946209,0.017372321581794296,-0.17169862985610962,-0.4028754234313965,-0.8990055322647095,0.023524525597716187,-0.0009434514673965405,0.008656647671581363,0.9996853238808481,-0.002952554728835821,-0.0043676006607711315,-0.008040864020586014,0.0038006454706192017,-0.011887162923812866,-0.011516451835632324
2025-09-20T02:23:56Z,-0.0023852488501171134,0.046938317813413226,0.01718920491295545,-0.17171287536621094,-0.4028192460536957,-0.8990280032157898,0.02347636900661127,-0.00099056474282501,0.00856413769927331,0.9996871869278648,-0.006334719248116016,-0.005877290386706591,-0.01020975224673748,0.004053771495819092,-0.010367423295974731,-0.011767029762268066
2025-09-20T02:23:56Z,-0.002518961821773819,0.04678197789844531,0.016982120038647658,-0.17175863683223724,-0.40271368622779846,-0.8990665674209595,0.023398686579976055,-0.0010604970406786663,0.008459172111284859,0.9996898184109783,-0.007977771572768688,-0.006393849849700928,-0.009113604202866554,0.004485994577407837,-0.009993016719818115,-0.010758280754089355
2025-09-20T02:23:56Z,-0.002699503764281375,0.046634504615340064,0.01682216015243477,-0.17186348140239716,-0.40260809659957886,-0.8990938067436218,0.023325644424418514,-0.0011532338589649303,0.008377218770350197,0.9996921009884389,-0.00513826310634613,-0.008103897795081139,-0.006763805635273457,0.004771754145622253,-0.0107879638671875,-0.011389970779418945
2025-09-20T02:23:56Z,-0.0027934327124267398,0.04658543525297849,0.016653154222519586,-0.1718870997428894,-0.4025925397872925,-0.8990962505340576,0.02330140927826412,-0.0012023600254364632,0.008291685352931072,0.999693317546706,-0.0011877692304551601,-0.005321507342159748,-0.005016984883695841,0.0043064504861831665,-0.011400103569030762,-0.012263119220733643
2025-09-20T02:23:56Z,-0.0029243492609786026,0.04662410551031479,0.01659131039438847,-0.17198248207569122,-0.402637779712677,-0.8990577459335327,0.02332124214962959,-0.0012683577666154494,0.008259215694458056,0.9996930343225735,0.002480596536770463,-0.006967487279325724,0.00019597075879573822,0.00330527126789093,-0.010116636753082275,-0.011295676231384277
2025-09-20T02:23:56Z,-0.0030798121594397933,0.04668991138611022,0.016641483299589355,-0.17214025557041168,-0.40268850326538086,-0.8990048170089722,0.02335481027399618,-0.0013452054018188795,0.008282424458701554,0.9996919738651514,0.002787097590044141,-0.0056784627959132195,0.0055764359422028065,0.0024296045303344727,-0.010070115327835083,-0.011663496494293213
2025-09-20T02:23:56Z,-0.0030327504211132596,0.046776203275929365,0.016811738172861933,-0.17215916514396667,-0.4027373194694519,-0.8989793658256531,0.02339786062002127,-0.0013193295596974632,0.008368001416460097,0.999690278952419,0.005398580338805914,0.010683783330023289,0.007327488623559475,0.006460323929786682,-0.012356847524642944,-0.015452921390533447
2025-09-20T02:23:56Z,-0.0026228727593030025,0.046885964592816465,0.016910840543023626,-0.1718262881040573,-0.40281930565834045,-0.8990063071250916,0.023451062956501064,-0.0011128292205584709,0.008422249035305553,0.999688871905451,0.000701309647411108,0.031400080770254135,0.0014640088193118572,0.008079931139945984,-0.013521045446395874,-0.018032371997833252
2025-09-20T02:23:56Z,-0.001892917897368906,0.046833477557384845,0.016930577623660976,-0.17117716372013092,-0.4027687609195709,-0.8991527557373047,0.023421758961001165,-0.0007479565375612573,0.008440702903826529,0.9996897651989558,-0.007924005389213562,0.03389637544751167,0.002338079735636711,0.0051627010107040405,-0.009792417287826538,-0.014841735363006592
2025-09-20T02:23:56Z,-0.0013504807740328411,0.04656252675479553,0.016989308860690878,-0.1707107126712799,-0.40251508355140686,-0.8993549942970276,0.02328404905510271,-0.00047728699235589407,0.008476529755020355,0.9996928544416777,-0.01467752642929554,0.016936587169766426,0.002050226554274559,0.002548813819885254,-0.007186084985733032,-0.009856760501861572
2025-09-20T02:23:56Z,-0.0011935178681020185,0.04626563384746312,0.01704536134208955,-0.170589879155159,-0.40223851799964905,-0.8995016813278198,0.023134993682434664,-0.00039944396068917874,0.008506492577839057,0.9996961021399674,-0.015986522659659386,0.003951217979192734,6.948108784854412e-05,0.0028274357318878174,-0.008937031030654907,-0.008521020412445068
2025-09-20T02:23:56Z,-0.001163057613124386,0.045990640808260014,0.016998767165676134,-0.17054583132266998,-0.40199899673461914,-0.8996171355247498,0.022997399372066074,-0.0003859275916972467,0.008483661487738275,0.9996995131996241,-0.008970477618277073,-0.0038316650316119194,-0.0033283857628703117,0.004344120621681213,-0.010611653327941895,-0.008689522743225098
2025-09-20T02:23:56Z,-0.0013164039368120982,0.04589702428732621,0.016939870086604296,-0.17066262662410736,-0.4019247591495514,-0.8996281623840332,0.022951241522376153,-0.00046365202242402905,0.008452498247567677,0.9997008225780802,-0.003348306752741337,-0.01089346781373024,0.000640280544757843,0.002867177128791809,-0.008937537670135498,-0.008298993110656738
2025-09-20T02:23:56Z,-0.0015199159127562258,0.04588822847816415,0.01709834703567846,-0.1709027737379074,-0.4018899202346802,-0.8995980620384216,0.022947751794188648,-0.0005635965388850988,0.008529382504173004,0.9997001045375139,-0.0034006843343377113,-0.0059374612756073475,0.005292048212140799,0.0034827739000320435,-0.008865714073181152,-0.011228382587432861
2025-09-20T02:23:56Z,-0.0017234521955043856,0.045879473952794875,0.017256820598090944,-0.17114295065402985,-0.4018552005290985,-0.8995679616928101,0.02294429658322297,-0.0006635536309909545,0.008606264806293113,0.9996994554376554,-0.003453061683103442,-0.0009814547374844551,0.00994381494820118,0.004098370671272278,-0.008793741464614868,-0.01415783166885376
2025-09-20T02:23:56Z,-0.001614429916628898,0.04585586419346728,0.017452265668105402,-0.17111527919769287,-0.40180084109306335,-0.8995974659919739,0.0229320852684363,-0.0006069199378482365,0.008705220446120836,0.9996989249276662,-0.002665671519935131,0.006247386336326599,0.0116971954703331,0.004016965627670288,-0.01068165898323059,-0.015159666538238525
2025-09-20T02:23:56Z,-0.0015346892621128688,0.04575928612196401,0.01766049730289164,-0.1711185872554779,-0.4016786217689514,-0.8996514081954956,0.022883523154274756,-0.0005651011921418535,0.008810266191587113,0.9996991186069952,-0.004410853609442711,0.005071552004665136,0.007503810338675976,0.00264015793800354,-0.012135982513427734,-0.01386791467666626
2025-09-20T02:23:56Z,-0.0014707403534773723,0.045671106601915944,0.017769508810133037,-0.17110036313533783,-0.4015807807445526,-0.8996985554695129,0.02283919382185228,-0.0005322814456908237,0.008865528526434092,0.9996996686293439,-0.005623857490718365,0.0011529065668582916,0.0019123540259897709,0.002227380871772766,-0.012571960687637329,-0.013480663299560547
2025-09-20T02:23:56Z,-0.001522968935671769,0.04551735361839684,0.01777041222672622,-0.17114777863025665,-0.4014422595500946,-0.8997513651847839,0.02276257169612931,-0.000559061786828847,0.008865457590392482,0.9997014213801292,-0.008549673482775688,-0.0034151365980505943,-0.0026400312781333923,0.0024671554565429688,-0.012820899486541748,-0.012237787246704102
2025-09-20T02:23:56Z,-0.0015768298379133588,0.04531491794495395,0.017682311272459724,-0.1711646467447281,-0.40127500891685486,-0.8998227715492249,0.022661597287103402,-0.0005878833651051558,0.008820907508251062,0.999704074291258,-0.0073545086197555065,-0.009035477414727211,-0.0034269923344254494,0.003171965479850769,-0.011088639497756958,-0.01062309741973877
2025-09-20T02:23:56Z,-0.0016407254089535793,0.045190478761632215,0.017539189186331655,-0.1711706668138504,-0.4011872410774231,-0.8998607397079468,0.022599633877663717,-0.0006219900574169397,0.008748707170091666,0.9997060708420364,-0.006107171066105366,0.0011180536821484566,-0.005225311499089003,0.005354359745979309,-0.013139873743057251,-0.013154745101928711
2025-09-20T02:23:56Z,-0.0016130302774983864,0.04512549394554768,0.017359826369297747,-0.17108118534088135,-0.4011591374874115,-0.8998903036117554,0.02256697544555035,-0.0006104558640370726,0.00865939768147267,0.9997075828022972,-0.004433110356330872,0.003896221984177828,-0.005353905260562897,0.0035172104835510254,-0.012021660804748535,-0.012076616287231445
2025-09-20T02:23:56Z,-0.0015204798015724106,0.045080180584316516,0.017292376921218426,-0.17097364366054535,-0.4011297821998596,-0.8999238014221191,0.02254390509082866,-0.0005651514287908511,0.00862674853455866,0.9997084348310964,-0.003907958976924419,0.0015477361157536507,-0.0023575802333652973,0.0024430155754089355,-0.008700728416442871,-0.01085042953491211
2025-09-20T02:23:56Z,-0.001450287302254166,0.04494475463725224,0.01724426826310624,-0.17089323699474335,-0.4010160267353058,-0.8999897837638855,0.022475895889732502,-0.0005311924577270663,0.008603554496502519,0.9997102015370439,-0.006806247401982546,0.00029398046899586916,-0.0014094157377257943,0.0027096569538116455,-0.00770193338394165,-0.01236945390701294
2025-09-20T02:23:56Z,-0.0014309292302584202,0.0447493972518119,0.01726420405382096,-0.17088311910629272,-0.4008367955684662,-0.9000715613365173,0.02237816675609238,-0.0005221367027988888,0.008613825590804258,0.9997123367757903,-0.011899810284376144,0.0024702344089746475,-0.00034561846405267715,0.00396592915058136,-0.008593946695327759,-0.012465417385101318
2025-09-20T02:23:56Z,-0.0013412375530290023,0.04451011436093409,0.017288871783647356,-0.17081139981746674,-0.40061718225479126,-0.9001829624176025,0.022258179368494266,-0.0004780635132144099,0.008627262827150263,0.9997149130697305,-0.012203823775053024,0.003846867708489299,0.0013651298359036446,0.0027189552783966064,-0.00865793228149414,-0.011954665184020996
2025-09-20T02:23:56Z,-0.0012313794517136995,0.04425811155134354,0.017314908777559583,-0.17072200775146484,-0.40038585662841797,-0.9003028273582458,0.022131745095543054,-0.00042395264903538323,0.008641601888746596,0.9997176314272125,-0.009066211991012096,0.0038545101415365934,0.0007766358903609216,0.0030394792556762695,-0.010718345642089844,-0.012667715549468994
2025-09-20T02:23:56Z,-0.0010918055814644163,0.04406676043936825,0.017254889476099655,-0.17057481408119202,-0.4002237021923065,-0.9004027843475342,0.022035482260337327,-0.00035567594480108227,0.008613215467694495,0.9997200486717769,-0.0039263623766601086,0.00449575437232852,-0.0032509099692106247,0.004394784569740295,-0.012975901365280151,-0.013027369976043701
2025-09-20T02:23:56Z,-0.0009738525358217578,0.04401682175573583,0.017117298109425506,-0.17041908204555511,-0.40020206570625305,-0.9004419445991516,0.022009990772986456,-0.0002984457647049231,0.008545755199837763,0.9997212368777415,-0.0015722522512078285,0.0027807033620774746,-0.00830308347940445,0.004701688885688782,-0.013134211301803589,-0.012625932693481445
2025-09-20T02:23:56Z,-0.000945281422030116,0.0439708822888118,0.016896267312660224,-0.1703137457370758,-0.4001981019973755,-0.9004635810852051,0.021986874133976805,-0.00028679085860309654,0.008435600242330329,0.9997226693222822,-0.00278819864615798,-0.0014236844144761562,-0.010373026132583618,0.004106000065803528,-0.011123955249786377,-0.011647820472717285
2025-09-20T02:23:56Z,-0.0009731710025054291,0.04389258893239226,0.01663282119123954,-0.1702439934015274,-0.4001721739768982,-0.9004883170127869,0.021947816208296396,-0.00030395386689572576,0.008303633286047921,0.9997246218786371,-0.003837724681943655,-0.005574674811214209,-0.010180490091443062,0.003860875964164734,-0.010075271129608154,-0.010867655277252197
2025-09-20T02:23:56Z,-0.0010823649189198373,0.04380158686078202,0.016396700157905317,-0.17025728523731232,-0.40013015270233154,-0.900504469871521,0.021902738602509114,-0.0003615004867152931,0.008184439775228617,0.9997265689647201,-0.004840435925871134,-0.009710643440485,-0.009351510554552078,0.004381731152534485,-0.009403079748153687,-0.00993889570236206
2025-09-20T02:23:56Z,-0.001279810762378648,0.043703389881923314,0.01620742808151103,-0.17036692798137665,-0.40007370710372925,-0.9005088210105896,0.021854417930262462,-0.0004626677382196174,0.008087707432782476,0.999728362627064,-0.0043716649524867535,-0.011103948578238487,-0.0068003167398273945,0.004152774810791016,-0.009093999862670898,-0.010841429233551025
2025-09-20T02:23:56Z,-0.0015359523642891832,0.04363306125383619,0.016089512683658568,-0.17055512964725494,-0.40003031492233276,-0.9004924893379211,0.021820263717891055,-0.0005922756925454077,0.008025999867270423,0.9997295462255695,-0.00486951507627964,-0.007589549757540226,-0.002025398425757885,0.004602685570716858,-0.008488684892654419,-0.012497484683990479
2025-09-20T02:23:56Z,-0.001682962250686071,0.0435457369428611,0.016101821634997116,-0.17069201171398163,-0.3999495804309845,-0.9005024433135986,0.021777207197883567,-0.0006659786853078936,0.008030593091448116,0.9997304091550926,-0.0030697803013026714,-0.006106407847255468,0.0030477154068648815,0.003976047039031982,-0.00772741436958313,-0.01264810562133789
2025-09-20T02:23:56Z,-0.001715821355238107,0.04349032802596964,0.016212168455729654,-0.17076140642166138,-0.3998810052871704,-0.9005197286605835,0.02174967931584626,-0.000681427305133311,0.008085422297217931,0.9997305772267577,-0.0027716385666280985,-0.0007740575820207596,0.007618851028382778,0.003289356827735901,-0.00839167833328247,-0.013917148113250732
2025-09-20T02:23:56Z,-0.0016758491583395202,0.04338202025136095,0.016397818399711137,-0.1707923412322998,-0.3997519910335541,-0.9005711078643799,0.021695441732450655,-0.0006598725985474346,0.00817871265394999,0.9997309202570474,-0.0030066268518567085,0.0019334382377564907,0.005616729613393545,0.003278881311416626,-0.011179506778717041,-0.013723790645599365
2025-09-20T02:23:56Z,-0.0016441402837216032,0.043321856103983265,0.016472337787494348,-0.1707906872034073,-0.39968520402908325,-0.9006010890007019,0.021665261604709583,-0.0006434622948184446,0.0082163362051607,0.9997312983244444,-0.002157660899683833,0.0007330254884436727,0.0010930527932941914,0.0017850697040557861,-0.012366443872451782,-0.011494755744934082
2025-09-20T02:23:56Z,-0.001667502857342241,0.04327173888472294,0.016473238796453918,-0.17081207036972046,-0.39963987469673157,-0.9006171226501465,0.021640306585525272,-0.0006553374905573263,0.008216559086037986,0.9997318022308372,-0.0016126071568578482,-0.0015590355033054948,-0.0021787420846521854,0.0021397024393081665,-0.013285398483276367,-0.01120227575302124
2025-09-20T02:23:56Z,-0.0016921497901843435,0.04322507410455223,0.01637087860633981,-0.1707974374294281,-0.39961516857147217,-0.9006308317184448,0.021617047102935574,-0.0006689565702304995,0.008165149735308744,0.9997327358945749,-0.0038632191717624664,-0.0037146625109016895,-0.0059441812336444855,0.0026746243238449097,-0.01251116394996643,-0.012033164501190186
2025-09-20T02:23:56Z,-0.0017146395760519561,0.04311493402334732,0.01616259618223415,-0.1707427054643631,-0.3995511531829834,-0.9006696343421936,0.021562012536391027,-0.0006828956368120608,0.00806085001713707,0.9997347632377974,-0.008099492639303207,-0.002618167083710432,-0.009104420430958271,0.00325775146484375,-0.011283546686172485,-0.013164997100830078
2025-09-20T02:23:56Z,-0.0017476334039352036,0.04292255370523679,0.015931444921353323,-0.17068925499916077,-0.39941689372062683,-0.900739312171936,0.021465899436001763,-0.0007026480710361999,0.0079450496795088,0.9997377584489814,-0.011501776985824108,-0.0008720061741769314,-0.011686375364661217,0.00379239022731781,-0.01108396053314209,-0.012281656265258789
2025-09-20T02:23:56Z,-0.0017489632856710498,0.04267796495152857,0.015634862783935853,-0.17058373987674713,-0.39924660325050354,-0.9008347988128662,0.021343537613353593,-0.0007074541190686289,0.007796910510595323,0.9997415411627817,-0.011472420766949654,-0.0016565071418881416,-0.01103135570883751,0.003631412982940674,-0.011048167943954468,-0.011073887348175049
2025-09-20T02:23:56Z,-0.001806370610698979,0.04252595320824685,0.015403892220871542,-0.1705522984266281,-0.3991485834121704,-0.900884211063385,0.02126769009347107,-0.0007392019682106264,0.00768092354818557,0.9997440240050943,-0.007880578748881817,-0.002417698735371232,-0.00860387273132801,0.003908529877662659,-0.010737478733062744,-0.01171863079071045
2025-09-20T02:23:56Z,-0.0018637891944115132,0.04237389526600353,0.015172915182593475,-0.1705208718776703,-0.3990505337715149,-0.900933563709259,0.021191812064071332,-0.0007709382627132638,0.007564936997314821,0.9997465000862439,-0.0042887357994914055,-0.0031788903288543224,-0.006176390685141087,0.004185661673545837,-0.010426878929138184,-0.012363255023956299
2025-09-20T02:23:56Z,-0.001911173614432799,0.04230027325406876,0.015094007526360599,-0.17053517699241638,-0.3989975154399872,-0.9009543657302856,0.0211551577810285,-0.0007957390537843016,0.00752503196990069,0.9997475794109152,-0.0033623729832470417,-0.0026604626327753067,-0.0001580868847668171,0.002418622374534607,-0.009145885705947876,-0.010924696922302246
2025-09-20T02:23:56Z,-0.0020367414497454717,0.0422423454445201,0.015179339116698849,-0.17067912220954895,-0.3989309072494507,-0.9009565711021423,0.02112670991819896,-0.000857824888779247,0.007566392794351525,0.9997478316457069,-0.004663183353841305,-0.0005911497864872217,0.0074121481738984585,0.002269834280014038,-0.00880095362663269,-0.011540412902832031
2025-09-20T02:23:56Z,-0.0018433841589137908,0.04214194282424991,0.015408658978383987,-0.1705876737833023,-0.3988017439842224,-0.9010310769081116,0.021075876081275195,-0.0007591359536306875,0.007683120377410694,0.9997481295200714,-0.004694250877946615,0.016451433300971985,0.011874236166477203,0.005924999713897705,-0.011125326156616211,-0.014920592308044434
2025-09-20T02:23:56Z,-0.0012438420718732285,0.04204877314548496,0.015556977999304342,-0.17010094225406647,-0.3986927270889282,-0.9011713266372681,0.021027032682174616,-0.0004582404977414258,0.007763615303563008,0.9997487285618212,-0.007941324263811111,0.037286754697561264,0.006868345662951469,0.007173314690589905,-0.0137253999710083,-0.01787590980529785
2025-09-20T02:23:56Z,-0.0004288144538598148,0.04183213616836235,0.015614489720912594,-0.16938716173171997,-0.39848771691322327,-0.9013964533805847,0.020915578301472566,-5.107050369506009e-05,0.00780097343689873,0.999750829196673,-0.013329174369573593,0.03807508200407028,0.0030372540932148695,0.004533886909484863,-0.010537058115005493,-0.014581024646759033
2025-09-20T02:23:57Z,0.000173357456683315,0.04143745585142485,0.01565243297666415,-0.16885799169540405,-0.39812546968460083,-0.9016557335853577,0.02071593232145384,0.000248793448600519,0.007826252351846244,0.9997547668656392,-0.020947489887475967,0.01813279092311859,0.0019764420576393604,0.001935124397277832,-0.007660329341888428,-0.008882999420166016
2025-09-20T02:23:57Z,0.00036643585973927004,0.041044489004860664,0.015668271444764358,-0.1686895489692688,-0.39776846766471863,-0.9018447995185852,0.0205187382081132,0.00034393482078645237,0.00783616520721923,0.999758733512986,-0.01858585514128208,0.004354264587163925,-0.0014845069963485003,0.002782866358757019,-0.009716123342514038,-0.008690953254699707
2025-09-20T02:23:57Z,0.0004149587148594408,0.040715678271236934,0.01562818066430968,-0.16863128542900085,-0.39747869968414307,-0.9019834995269775,0.02035418956445839,0.00036649539465552765,0.007816614659215047,0.9997622370061122,-0.012095566838979721,-0.001956515945494175,-0.002747379010543227,0.003771156072616577,-0.010840922594070435,-0.008959770202636719
2025-09-20T02:23:57Z,0.0003063382489568465,0.04056195187462468,0.015533875201335505,-0.16869525611400604,-0.3973560035228729,-0.902025580406189,0.02027778326553307,0.0003106416634295283,0.00776836785608241,0.9997642081401089,-0.005819827783852816,-0.006491139996796846,0.0005299502518028021,0.0033769458532333374,-0.009462684392929077,-0.00864642858505249
2025-09-20T02:23:57Z,0.00023306194236329591,0.04048873283237008,0.015577286548251568,-0.1687769740819931,-0.39728260040283203,-0.9020426273345947,0.02024146152531995,0.00027416732574832373,0.007789327167138264,0.999764767007533,-0.0033845168072730303,-0.004758021794259548,0.0049478281289339066,0.0042723119258880615,-0.007530540227890015,-0.010980308055877686
2025-09-20T02:23:57Z,0.0001760934973234016,0.0404023586055973,0.01576592487955055,-0.1688963621854782,-0.39717286825180054,-0.9020686149597168,0.020198482475562995,0.0002472586703565984,0.007883050346158294,0.9997649438317517,-0.002542715985327959,0.0018579373136162758,0.008397762663662434,0.0033303946256637573,-0.008373409509658813,-0.01357334852218628
2025-09-20T02:23:57Z,0.0002822594205207146,0.040288198515396646,0.0159327902822968,-0.16886071860790253,-0.3970416784286499,-0.902133047580719,0.020140972347422192,0.0003015598660790151,0.007967536739529902,0.9997654143986011,-0.005980468355119228,0.008278239518404007,0.00818323902785778,0.003827199339866638,-0.010751962661743164,-0.015111148357391357
2025-09-20T02:23:57Z,0.0004276773763021186,0.04016738689827016,0.016094414927140605,-0.16878774762153625,-0.3969053626060486,-0.9022066593170166,0.02007997120329997,0.0003753936397887076,0.00804979140294006,0.9997659494813742,-0.007879684679210186,0.007978536188602448,0.005558081902563572,0.0025535672903060913,-0.012796878814697266,-0.01427537202835083
2025-09-20T02:23:57Z,0.0004846169894092144,0.0399629154393901,0.016134285712480236,-0.16875070333480835,-0.39671415090560913,-0.9022976756095886,0.019977522271328332,0.0004034330049895358,0.008070285627511968,0.9997678160618089,-0.008539428003132343,0.0033813808113336563,0.0012372257187962532,0.0022890418767929077,-0.012487918138504028,-0.013554632663726807
2025-09-20T02:23:57Z,0.0005415835383746784,0.03975844882392081,0.016174194198697034,-0.16871364414691925,-0.3965229392051697,-0.9023886322975159,0.019875074116181068,0.0004314822497151865,0.00809079305573989,0.9997696804037718,-0.0091991713270545,-0.0012157745659351349,-0.003083630930632353,0.0020245015621185303,-0.012178927659988403,-0.012833893299102783
2025-09-20T02:23:57Z,0.0005790029338230421,0.039610919373918266,0.01612753051626372,-0.16866302490234375,-0.3963977098464966,-0.9024531245231628,0.019801185283211495,0.0004491296382011686,0.008067828834712657,0.9997713318195469,-0.005847098771482706,-0.00613096309825778,-0.00196121190674603,0.0031338930130004883,-0.010782957077026367,-0.010613858699798584
2025-09-20T02:23:57Z,0.000520474953831435,0.03950531101242366,0.01607658172844907,-0.16869746148586273,-0.3963110148906708,-0.9024847745895386,0.019748639664939147,0.0004189438079175882,0.008041775353951923,0.9997726068882821,-0.0042247469536960125,0.002482596319168806,-0.004617622122168541,0.004518613219261169,-0.013161033391952515,-0.012584030628204346
2025-09-20T02:23:57Z,0.0006485922062715979,0.03942107920709168,0.015899441523788742,-0.16851799190044403,-0.3962649703025818,-0.902538537979126,0.019706060504578484,0.0004809042802745253,0.00795448325544316,0.9997741329496226,-0.0061139678582549095,0.009132269769906998,-0.005846496671438217,0.004104197025299072,-0.011501401662826538,-0.012108027935028076
2025-09-20T02:23:57Z,0.0008856880972115565,0.039243641619072664,0.015770794744845665,-0.16825756430625916,-0.39612656831741333,-0.902647852897644,0.019616457114860174,0.0005974592637447033,0.007892484962728478,0.9997763189119337,-0.01365530863404274,0.008331196382641792,-0.005003462079912424,0.0024771690368652344,-0.008279263973236084,-0.010745346546173096
2025-09-20T02:23:57Z,0.0010538705104033168,0.03890361679501536,0.01570673636453326,-0.16808253526687622,-0.39583051204681396,-0.9028103351593018,0.01944584017998659,0.000679570202528151,0.007862048881308082,0.9997798544018673,-0.020085858181118965,0.0042967405170202255,-0.0018497512210160494,0.0019606947898864746,-0.008610337972640991,-0.01050114631652832
2025-09-20T02:23:57Z,0.0010684212800785714,0.038450749946527904,0.015658686260355652,-0.1680518537759781,-0.39542973041534424,-0.9029916524887085,0.019219417366398584,0.0006846067655103692,0.007838084759782897,0.9997843132326897,-0.02119261398911476,0.0013024420477449894,-0.0033228532411158085,0.0034491121768951416,-0.009957104921340942,-0.011096954345703125
2025-09-20T02:23:57Z,0.0011303983865072207,0.038045438796664825,0.0155665917886043,-0.16796252131462097,-0.3950793445110321,-0.9031615853309631,0.01901659445682846,0.0007131287812068016,0.007792558436316168,0.9997885576312708,-0.019532611593604088,0.001489261630922556,-0.004174580331891775,0.00458449125289917,-0.010894536972045898,-0.011555671691894531
2025-09-20T02:23:57Z,0.0012028823848022907,0.037650587922345796,0.015464704603430472,-0.16786015033721924,-0.3947400152683258,-0.9033290147781372,0.018818965212635458,0.0007468702843289107,0.007742224644024286,0.9997927059803183,-0.01856761984527111,0.005797750316560268,-0.004105390049517155,0.004750654101371765,-0.010952144861221313,-0.01393979787826538
2025-09-20T02:23:57Z,0.0013238791983772767,0.03736379131156973,0.015375224884665036,-0.16771845519542694,-0.3944961130619049,-0.9034618735313416,0.018675163595605657,0.0008054137718451127,0.007698558139719253,0.9997957190443926,-0.012780152261257172,0.010365375317633152,-0.0045708948746323586,0.006317704916000366,-0.011720001697540283,-0.01456838846206665
2025-09-20T02:23:57Z,0.0016086991424828436,0.03717783033182444,0.01519819343135781,-0.1673971563577652,-0.39435791969299316,-0.9035817384719849,0.018581191271233925,0.0009454367589413611,0.007612659168878375,0.999797895845527,-0.008154056034982204,0.011233765631914139,-0.01044219359755516,0.005868390202522278,-0.012993723154067993,-0.01269829273223877
