timestamp,attitude_roll,attitude_pitch,attitude_yaw,gravity_x,gravity_y,gravity_z,quaternion_x,quaternion_y,quaternion_z,quaternion_w,rotation_rate_x,rotation_rate_y,rotation_rate_z,user_acceleration_x,user_acceleration_y,user_acceleration_z
2025-09-20T02:17:40Z,0.0016041528636223997,-0.011638767103918144,0.007221999077398432,-0.1440083086490631,-0.2843918800354004,-0.9478306174278259,-0.005822206949869958,0.0007810438915149354,0.003606261738234059,0.9999762750662016,-0.003827872686088085,0.00462890462949872,-0.006189545150846243,0.004092276096343994,-0.0022132694721221924,-0.016614854335784912
2025-09-20T02:17:40Z,0.001756779452583884,-0.011782084903006387,0.007132211808481195,-0.14383704960346222,-0.2842691242694855,-0.9478934407234192,-0.00589410081449391,0.0008573608512550342,0.0035608604018055766,0.9999759562316626,-0.009354541078209877,0.008882641792297363,-0.002024472691118717,0.004715919494628906,-0.0015118420124053955,-0.016996264457702637
2025-09-20T02:17:40Z,0.0019312732909328057,-0.011992714257472472,0.007090336040935126,-0.14365917444229126,-0.28407564759254456,-0.9479784369468689,-0.005999703627348763,0.0009443551005779208,0.0035393047619124403,0.9999753529580577,-0.01031450740993023,0.0075930338352918625,0.002565802540630102,0.0024584829807281494,-0.003641843795776367,-0.014389634132385254
2025-09-20T02:17:40Z,0.0020562701367085818,-0.01212767628304694,0.007228664518260048,-0.14358143508434296,-0.2839275300502777,-0.9480345845222473,-0.006067474380460441,0.0010061927797644892,0.0036080218238502305,0.9999745334303729,-0.0014656800776720047,-0.0037955204024910927,0.006097086705267429,0.0015402436256408691,-0.005125105381011963,-0.009396612644195557
2025-09-20T02:17:40Z,0.001962253689556086,-0.012082034846426764,0.007363315084845543,-0.14371035993099213,-0.28395119309425354,-0.9480079412460327,-0.006044549249908292,0.0009588614229084909,0.0036756535415031154,0.9999744634842888,0.008347742259502411,-0.004587065894156694,0.005020196083933115,0.0031033754348754883,-0.007508993148803711,-0.01050347089767456
2025-09-20T02:17:40Z,0.0018074053325973392,-0.011825265572087513,0.007395601488322986,-0.14386682212352753,-0.2841898202896118,-0.9479126930236816,-0.005915897482514299,0.0008818170647322795,0.003692383188190286,0.999975237955865,0.012629913166165352,-0.008220205083489418,0.0011319953482598066,0.0022353529930114746,-0.007834911346435547,-0.010023653507232666
2025-09-20T02:17:40Z,0.0015760448215594797,-0.011575895369545985,0.007445464728951522,-0.14410096406936646,-0.28441888093948364,-0.9478084444999695,-0.005790807385280886,0.0007664569133826401,0.003718099522107901,0.9999759615507976,0.008285930380225182,-0.009792725555598736,0.0022951429709792137,0.0010991096496582031,-0.003847867250442505,-0.011367321014404297
2025-09-20T02:17:40Z,0.0013888862155289122,-0.011434839938094226,0.007520687188719057,-0.14430062472820282,-0.2845415771007538,-0.9477412104606628,-0.0057199586510984736,0.0006729275384779347,0.0037563022128443316,0.999976300624589,0.004473713226616383,-0.010262840427458286,0.0056699905544519424,0.0009889304637908936,-0.002739042043685913,-0.013134777545928955
2025-09-20T02:17:40Z,0.001233531479417737,-0.01136206543941744,0.007627827909303868,-0.14447954297065735,-0.28459495306015015,-0.9476979374885559,-0.0056833121652982085,0.0005950844804203506,0.003810338719560817,0.9999763861350123,0.0028661328833550215,-0.006823856383562088,0.0051533812656998634,0.0015384256839752197,-0.004100143909454346,-0.014552593231201172
2025-09-20T02:17:40Z,0.001173574258223927,-0.011280821754606301,0.007734862473584639,-0.14456801116466522,-0.2846563458442688,-0.9476659893989563,-0.005642607264548453,0.0005649596577758073,0.003864049821820982,0.9999764320906088,0.00450583640486002,0.00027561094611883163,0.004847479052841663,0.0022703856229782104,-0.005977511405944824,-0.01539987325668335
2025-09-20T02:17:40Z,0.0012607069003841424,-0.011132362939366208,0.007847672184707966,-0.14451880753040314,-0.2847805917263031,-0.9476361870765686,-0.005568582097562746,0.0006084981770560623,0.003920255819637566,0.9999766318133043,0.009684223681688309,0.008390909992158413,0.005328950937837362,0.0026130974292755127,-0.007103413343429565,-0.016157150268554688
2025-09-20T02:17:40Z,0.0014566778861554587,-0.010869672244675232,0.007905419991757074,-0.14435026049613953,-0.2850210666656494,-0.9475895762443542,-0.005437644205231547,0.0007068402533309796,0.003948681835007566,0.9999771931068517,0.014723077416419983,0.009407082572579384,0.0028045231010764837,0.002365976572036743,-0.008094608783721924,-0.013392508029937744
2025-09-20T02:17:40Z,0.0016494547399827763,-0.01051223260981999,0.007968766206020514,-0.14418646693229675,-0.2853504419326782,-0.9475153684616089,-0.00525933438664768,0.0008037670893642359,0.003979981221714561,0.9999779611684233,0.01731519028544426,0.0033694133162498474,0.004697948228567839,0.0012336820363998413,-0.007120788097381592,-0.010387063026428223
2025-09-20T02:17:40Z,0.001644007937358741,-0.010163977609429895,0.00810784017117561,-0.144232839345932,-0.2856599986553192,-0.9474150538444519,-0.005085255953980846,0.0008013847145300673,0.004049678070967221,0.9999785066724823,0.017693132162094116,-0.00427719671279192,0.008770962245762348,0.0011893510818481445,-0.005884498357772827,-0.010047376155853271
2025-09-20T02:17:40Z,0.0015504151521855707,-0.009821959762338303,0.00834685755412557,-0.1443922370672226,-0.28594911098480225,-0.9473035335540771,-0.004914151215993541,0.0007546959362741747,0.004169558181016528,0.9999789288268505,0.015640052035450935,-0.006985829211771488,0.013255205005407333,0.0016189217567443848,-0.0049738287925720215,-0.011144101619720459
2025-09-20T02:17:40Z,0.0014100683621468607,-0.00948504756052319,0.008694754100600765,-0.14462801814079285,-0.2862173914909363,-0.9471865296363831,-0.004745525159037028,0.0006844021597317041,0.004343969922829514,0.9999790398031428,0.01542783621698618,-0.010169124230742455,0.020528506487607956,0.0006104707717895508,-0.0044519007205963135,-0.011906981468200684
2025-09-20T02:17:40Z,0.0011934779914269764,-0.009100724550840792,0.009181556529429003,-0.14497697353363037,-0.2865102291107178,-0.9470446705818176,-0.004553037431544799,0.0005758369580024143,0.004587998615747349,0.9999789087429962,0.02068105712532997,-0.012298570945858955,0.02667051926255226,0.00032298266887664795,-0.006095975637435913,-0.01127767562866211
2025-09-20T02:17:40Z,0.000902089035240877,-0.008592123457261422,0.009814151185290238,-0.14543971419334412,-0.28689929842948914,-0.946855902671814,-0.004298209864207758,0.00042995398237174527,0.004905072694178103,0.9999785866654044,0.03002145141363144,-0.013315675780177116,0.030293820425868034,0.00014884769916534424,-0.006273746490478516,-0.01060175895690918
2025-09-20T02:17:40Z,0.0007073328968074416,-0.007915492144206667,0.010502187351577905,-0.14582721889019012,-0.28743910789489746,-0.9466325640678406,-0.003959538137758011,0.00033287645811067913,0.00524962852016443,0.9999783013705481,0.038211897015571594,-0.008399305865168571,0.03594118356704712,0.0014493167400360107,-0.006389141082763672,-0.012691318988800049
2025-09-20T02:17:40Z,0.0006005390938069563,-0.007062647870729292,0.011315777728833359,-0.14616836607456207,-0.28812697529792786,-0.9463707804679871,-0.0035329588320486267,0.00028028317784770156,0.00565676288737546,0.999977707413343,0.04521745443344116,-0.0030746664851903915,0.04390722140669823,0.0008536875247955322,-0.0036495327949523926,-0.012815892696380615
2025-09-20T02:17:40Z,0.0005233976572378054,-0.006121296286460564,0.012339051801757105,-0.14654310047626495,-0.288867324590683,-0.946087121963501,-0.003062199563570327,0.00024281002214666267,0.006168656727813067,0.9999762515438629,0.04752124100923538,-0.0016557031776756048,0.055947937071323395,0.0003610551357269287,-0.001245349645614624,-0.013383865356445312
2025-09-20T02:17:40Z,0.0005844614187801967,-0.005140836733681637,0.01356315120211743,-0.14684607088565826,-0.2896144986152649,-0.9458116292953491,-0.002572338086008258,0.0002747916873972641,0.006780749798198887,0.999973663105656,0.04662236198782921,0.0024812945630401373,0.06353563070297241,0.0007887184619903564,-0.002199918031692505,-0.014358103275299072
2025-09-20T02:17:40Z,0.0006764359196199111,-0.004094308866357548,0.015001887481532626,-0.14718277752399445,-0.2903916835784912,-0.9455209970474243,-0.002049632324741358,0.00032285231012427743,0.007500165271267297,0.9999696699716539,0.05353698879480362,0.0038339938037097454,0.08147867023944855,0.0005809813737869263,0.0010344982147216797,-0.01383441686630249
2025-09-20T02:17:40Z,0.001009223685088801,-0.002663947112404228,0.017671980141699406,-0.1476537138223648,-0.2913479208946228,-0.9451532959938049,-0.001336379738314742,0.0004928225484700737,0.008835194413632277,0.9999599107196425,0.07045994699001312,0.016852298751473427,0.12887461483478546,0.001504063606262207,0.004716008901596069,-0.015349388122558594
2025-09-20T02:17:40Z,0.001338172954207796,-0.0012327300450775999,0.020341591889288184,-0.14812733232975006,-0.29230237007141113,-0.94478440284729,-0.0006231380012632921,0.0006627828933122116,0.010170204203395993,0.9999478486883703,0.08738289773464203,0.02987060323357582,0.17627055943012238,0.0024298280477523804,0.008395642042160034,-0.01686549186706543
2025-09-20T02:17:40Z,0.002182804547376296,0.0006393739812417818,0.024270530032347092,-0.1484823375940323,-0.2934810221195221,-0.9443632364273071,0.00030641913023153524,0.0010952010360164562,0.01213530828548972,0.9999257109092183,0.10143372416496277,0.05749066174030304,0.22682154178619385,0.0036871880292892456,0.00888824462890625,-0.020862340927124023
2025-09-20T02:17:40Z,0.0035576022639134063,0.0027458816107998967,0.029172101202042732,-0.14861981570720673,-0.2947275638580322,-0.943953275680542,0.0013468474754649415,0.0017986343974899176,0.014587939007197282,0.9998910312770464,0.11227336525917053,0.08161255717277527,0.2636733651161194,0.00404299795627594,0.005303442478179932,-0.019576191902160645
2025-09-20T02:17:40Z,0.0053902062047081895,0.0050437965555049785,0.03468970377091568,-0.1485028713941574,-0.29605168104171753,-0.9435572624206543,0.0024747635827503307,0.002738425538811889,0.0173506604661824,0.9998426154633053,0.11950091272592545,0.09810277074575424,0.28728294372558594,0.005185976624488831,0.0016399025917053223,-0.019314050674438477
2025-09-20T02:17:40Z,0.007451430886214682,0.007446259889726877,0.04060694382003902,-0.14828383922576904,-0.2974018454551697,-0.9431670308113098,0.0036466892383469935,0.0038004998585037843,0.020315664694832102,0.9997796960295913,0.12413887679576874,0.10942859202623367,0.3048027753829956,0.0043223947286605835,0.000970005989074707,-0.019133329391479492
2025-09-20T02:17:40Z,0.009640374888438797,0.00995058530672361,0.046824441141103415,-0.1480283886194229,-0.2987889051437378,-0.9427686929702759,0.004861011958002699,0.00493525860887039,0.023433496462190454,0.9997013433708043,0.12415160983800888,0.11622592061758041,0.3133390545845032,0.00410442054271698,-0.001149982213973999,-0.01813560724258423
2025-09-20T02:17:40Z,0.011933015553559703,0.012476194018435109,0.05306831515183535,-0.14767929911613464,-0.30017876625061035,-0.9423818588256836,0.006077456267574026,0.006129755537945492,0.02656726279543771,0.9996097190162573,0.12404710799455643,0.11533406376838684,0.3105979859828949,0.0026634037494659424,-0.004743814468383789,-0.012608051300048828
2025-09-20T02:17:40Z,0.01397238818184715,0.015049227855822354,0.05914214875760135,-0.14751645922660828,-0.30162742733955383,-0.9419446587562561,0.007314518480795349,0.0072053566988564775,0.029617752558037835,0.9995085049493075,0.12789329886436462,0.09881317615509033,0.29736003279685974,0.00017404556274414062,-0.006992995738983154,-0.004704117774963379
2025-09-20T02:17:40Z,0.01568828526934396,0.017738688972108046,0.06501449529916524,-0.1475975066423416,-0.30320557951927185,-0.9414251446723938,0.008609336186389347,0.008127864663808706,0.03256878008949102,0.9993993184452984,0.13191726803779602,0.07826381921768188,0.28954648971557617,-0.001954704523086548,-0.008915752172470093,-0.0028325319290161133
2025-09-20T02:17:40Z,0.01702171959998496,0.02047623281974634,0.07066047978701599,-0.14797066152095795,-0.30485400557518005,-0.9408340454101562,0.00993056983726134,0.008866621224085689,0.03540684033815399,0.9992842417439747,0.13284407556056976,0.06337910145521164,0.2799299359321594,-0.0023012906312942505,-0.008988022804260254,-0.005365848541259766
2025-09-20T02:17:40Z,0.018062336359045816,0.023159410213934185,0.07610896535026922,-0.14855928719043732,-0.30647286772727966,-0.9402151703834534,0.011227025764881902,0.009464427998807626,0.03814569689616765,0.9991642508700724,0.1278461366891861,0.050603631883859634,0.2634481191635132,-0.00186978280544281,-0.01044553518295288,-0.006570279598236084
2025-09-20T02:17:40Z,0.018669504857242888,0.025637129497771124,0.08094367015637942,-0.14937642216682434,-0.3079912066459656,-0.9395893216133118,0.0124295045321648,0.009844819377885719,0.04057525658615539,0.9990506457547954,0.12050136178731918,0.04156532138586044,0.24246037006378174,-0.0010414719581604004,-0.012318730354309082,-0.01006162166595459
2025-09-20T02:17:40Z,0.01926472136957851,0.028117772219093992,0.08577719480745538,-0.15020141005516052,-0.30950406193733215,-0.9389604926109314,0.013631899049423196,0.010225136439363729,0.04300451344727021,0.9989295403364404,0.11315658688545227,0.03252701461315155,0.2214726358652115,-0.000205308198928833,-0.01419740915298462,-0.01355600357055664
2025-09-20T02:17:40Z,0.019694595402902915,0.03043053193620712,0.09003692684297172,-0.1510155200958252,-0.31094875931739807,-0.9383524060249329,0.01475542499629561,0.010520700064912519,0.04514553701783128,0.9988160395091952,0.10655983537435532,0.030776673927903175,0.20160633325576782,-0.0006001144647598267,-0.014299511909484863,-0.014474093914031982
2025-09-20T02:17:40Z,0.020098271856227725,0.03272395948044114,0.0938484544578046,-0.1517253965139389,-0.31244510412216187,-0.9377406239509583,0.015871111363302846,0.010803980605556039,0.04706259543505918,0.9987073961338185,0.10901180654764175,0.018526170402765274,0.17792370915412903,-0.0030731409788131714,-0.01702171564102173,-0.010772228240966797
2025-09-20T02:17:40Z,0.020403821531927744,0.035038222425543664,0.09712492493221997,-0.15237514674663544,-0.3140470087528229,-0.9370999336242676,0.017001501715888254,0.011038492501695779,0.048711909050187824,0.998607125338329,0.11449633538722992,0.021439094096422195,0.14940796792507172,-0.0009781867265701294,-0.01965382695198059,-0.011036217212677002
2025-09-20T02:17:40Z,0.020644389099628093,0.03748332934570217,0.09977304629170834,-0.15290901064872742,-0.3158746063709259,-0.936398446559906,0.018201630364662973,0.011241823599961624,0.050047619943293285,0.998517683797774,0.11923082917928696,0.01680613122880459,0.11848452687263489,-0.0008836835622787476,-0.020126551389694214,-0.00890648365020752
2025-09-20T02:17:40Z,0.020774976691799108,0.03997422183932063,0.10193042268283585,-0.15340784192085266,-0.3178258538246155,-0.9356563091278076,0.019429696957735432,0.011389826024726532,0.051137557310312796,0.9984376224358803,0.12023709714412689,0.0039862459525465965,0.09514343738555908,-0.0024608075618743896,-0.016363710165023804,-0.007653951644897461
2025-09-20T02:17:40Z,0.020682902833210705,0.042485909424370465,0.10372076111555693,-0.1540117710828781,-0.3198568522930145,-0.9348646998405457,0.020675723933115148,0.011426065833641783,0.05204203711761871,0.9983654666093926,0.11937078833580017,-0.0037139812484383583,0.08499842137098312,-0.0026750564575195312,-0.012563258409500122,-0.011446893215179443
2025-09-20T02:17:41Z,0.020587699917698783,0.044983032150308785,0.10537988117067044,-0.1545812338590622,-0.32189425826072693,-0.9340710639953613,0.02191523376684359,0.01146114819997767,0.05288063223166638,0.998294572127983,0.12243923544883728,0.001555770169943571,0.08376863598823547,-0.0018151849508285522,-0.008526921272277832,-0.0143088698387146
2025-09-20T02:17:41Z,0.02062811247148542,0.047640083124488884,0.10701616042650698,-0.15501828491687775,-0.3240815997123718,-0.9332419037818909,0.023230978933421752,0.011569958061816512,0.053709834352493366,0.9982193123104659,0.13086000084877014,0.005754458252340555,0.08763260394334793,-0.002843230962753296,-0.0062226057052612305,-0.012731373310089111
2025-09-20T02:17:41Z,0.02073802231744062,0.05044220628882513,0.10866170469711459,-0.1553938090801239,-0.32639914751052856,-0.9323713779449463,0.024616972146908642,0.011719623109837735,0.05454503449389019,0.998139073094367,0.14047160744667053,0.011920626275241375,0.08720700442790985,-0.0015028566122055054,-0.008048951625823975,-0.01222383975982666
2025-09-20T02:17:41Z,0.020947215645300554,0.053303935801014314,0.11019790061778412,-0.15564659237861633,-0.3287878632545471,-0.9314894676208496,0.026030335648487585,0.011921307255648354,0.05532718077694348,0.998057675501665,0.141243115067482,0.015141433104872704,0.07270513474941254,-0.0020005255937576294,-0.011763662099838257,-0.012887179851531982
2025-09-20T02:17:41Z,0.02113602977019081,0.05609584619968185,0.11135932271727826,-0.15581366419792175,-0.3311742842197418,-0.9306157827377319,0.027411345032860746,0.01210789163884339,0.05592180957905034,0.9979853316898846,0.13392753899097443,0.009021127596497536,0.0479293018579483,-0.0028427690267562866,-0.013928920030593872,-0.011376023292541504
2025-09-20T02:17:41Z,0.021188565966797697,0.05861683761344957,0.11200383344757502,-0.15596191585063934,-0.3333975374698639,-0.9297967553138733,0.028663917259600828,0.012213077157057663,0.05625543712666863,0.9979301086538728,0.11940490454435349,-0.0014381883665919304,0.020320845767855644,-0.005121141672134399,-0.014934390783309937,-0.00906217098236084
2025-09-20T02:17:41Z,0.02105346422350948,0.06082978433262595,0.11206046101119087,-0.15611886978149414,-0.3354366421699524,-0.9290366768836975,0.029771574809038314,0.012208062300193875,0.056291527191239525,0.997895750370164,0.10014237463474274,-0.010799829848110676,-0.012830553576350212,-0.0065975189208984375,-0.017924636602401733,-0.009568870067596436
2025-09-20T02:17:41Z,0.02075501614357885,0.0626988293976316,0.11145053298881262,-0.15623943507671356,-0.3372728228569031,-0.9283514022827148,0.030716243179879827,0.012101792200316555,0.0559908277045185,0.997885364899937,0.08842773735523224,-0.022373896092176437,-0.04206754267215729,-0.008809119462966919,-0.019175589084625244,-0.008798718452453613
2025-09-20T02:17:41Z,0.020405701847632674,0.06440514443881762,0.11022319304819327,-0.15623369812965393,-0.33906519412994385,-0.9276992082595825,0.03158473960472282,0.011955339581745538,0.055380273618554916,0.9978940596136556,0.08238048851490021,-0.023404698818922043,-0.07476431131362915,-0.008594214916229248,-0.021506965160369873,-0.010269999504089355
2025-09-20T02:17:41Z,0.020064099329448897,0.06601144623483314,0.10831464152279184,-0.15602950751781464,-0.34088245034217834,-0.9270673990249634,0.03240695322912403,0.011797931796129753,0.05442921319043473,0.9979218193933955,0.07974419742822647,-0.026781685650348663,-0.11212752759456635,-0.007821053266525269,-0.022809624671936035,-0.01102524995803833
2025-09-20T02:17:41Z,0.019708986321725394,0.06738176056514004,0.10569388563854594,-0.15563635528087616,-0.34260356426239014,-0.9264988303184509,0.03311561516583194,0.01161420080249905,0.05312128547250656,0.9979712038500048,0.0632956475019455,-0.025319362059235573,-0.1455957591533661,-0.009464725852012634,-0.016624927520751953,-0.01322084665298462
2025-09-20T02:17:41Z,0.019455571438925838,0.06833198168181476,0.10251715095071003,-0.154989093542099,-0.34403035044670105,-0.9260785579681396,0.03361474906603995,0.011459296154458856,0.051535661474718684,0.9980394695256606,0.035559073090553284,-0.02002527564764023,-0.16801400482654572,-0.008974209427833557,-0.010102570056915283,-0.012534141540527344
2025-09-20T02:17:41Z,0.01933968516006906,0.06883111984556428,0.09893477965243332,-0.15409579873085022,-0.3451073169708252,-0.925826907157898,0.03388721399551799,0.011353483181426139,0.04974794398433566,0.9981221438462177,0.024518446996808052,-0.014335907995700836,-0.18863414227962494,-0.006476536393165588,-0.017115652561187744,-0.010754823684692383
2025-09-20T02:17:41Z,0.019304340906507924,0.06947587266237228,0.09469454354856378,-0.15294168889522552,-0.3464270830154419,-0.9255253076553345,0.03423386292268271,0.01127911265606968,0.04763367612091433,0.9982142967703788,0.051218777894973755,-0.015360749326646328,-0.234625905752182,-0.004572376608848572,-0.039800554513931274,-0.00820767879486084
2025-09-20T02:17:41Z,0.019217805583399056,0.07084727918822209,0.08920535015395463,-0.1514843851327896,-0.348622590303421,-0.9249404072761536,0.03495121097297739,0.011172238978299888,0.04489782680843957,0.9983174529387603,0.09552928805351257,-0.03247769922018051,-0.30999547243118286,-0.004511922597885132,-0.05666309595108032,-0.0037526488304138184
2025-09-20T02:17:41Z,0.018642571774888997,0.07302081098860339,0.08230561188017017,-0.1500793695449829,-0.35178327560424805,-0.9239722490310669,0.0360865790183575,0.010808735660958824,0.04145194440840414,0.9984300589582568,0.12442994117736816,-0.07139822840690613,-0.37228161096572876,-0.009156525135040283,-0.04826921224594116,-0.0010783076286315918
2025-09-20T02:17:41Z,0.017553099706294522,0.07535289743872495,0.07442648917120193,-0.1488623321056366,-0.35523563623428345,-0.9228475689888,0.03731371706201681,0.01016549139438293,0.03750718136209927,0.9985476654195043,0.11976651102304459,-0.07563719153404236,-0.40861058235168457,-0.008408859372138977,-0.03078252077102661,-0.011354327201843262
2025-09-20T02:17:41Z,0.016863776652719844,0.07752297238994164,0.06589003382384309,-0.1470750868320465,-0.3586256802082062,-0.9218223690986633,0.0384518529114142,0.009697286027067216,0.03323971885150026,0.9986602730907357,0.10524749010801315,-0.0666826069355011,-0.4467450678348541,-0.0025379955768585205,-0.02727314829826355,-0.012801647186279297
2025-09-20T02:17:41Z,0.01616288699426756,0.07951809194940314,0.056266049002636195,-0.14497168362140656,-0.3620055913925171,-0.920833945274353,0.03950440533596117,0.009189838081837784,0.02842726314671553,0.9987725847179183,0.10045573860406876,-0.07914112508296967,-0.5121299028396606,0.0028429776430130005,-0.03445178270339966,-0.005733847618103027
2025-09-20T02:17:41Z,0.015236527382393547,0.08133334021828934,0.04505586045915051,-0.14259973168373108,-0.36543983221054077,-0.9198472499847412,0.040472504748331126,0.008525740363549611,0.022816392347375276,0.998883631893271,0.08708043396472931,-0.10077106952667236,-0.5965431928634644,0.006907850503921509,-0.036441415548324585,-0.004344582557678223
2025-09-20T02:17:41Z,0.01372145636626081,0.08234676662124986,0.03168478021665172,-0.1401137411594391,-0.3684305250644684,-0.9190359711647034,0.04104702412554344,0.007506057549723956,0.016110290813300232,0.9989991350652648,0.05850301682949066,-0.13131828606128693,-0.6427809000015259,0.0035219192504882812,-0.01931348443031311,-0.002398550510406494
2025-09-20T02:17:41Z,0.012219973634047549,0.08338027453248922,0.018314124633434348,-0.13758601248264313,-0.3713867664337158,-0.9182276129722595,0.04161963777092271,0.006486020246957462,0.00940344748441003,0.9990681918947443,0.029925594106316566,-0.1618655025959015,-0.6890185475349426,9.429454803466797e-05,-0.0022200047969818115,-0.0004495978355407715
2025-09-20T02:17:41Z,0.009681068725167543,0.08325355210846148,0.004170645631156206,-0.13574860990047455,-0.3733384609222412,-0.917709469795227,0.04160409452509182,0.0049230911759312245,0.0022849270333884265,0.9991193740572354,0.004633639007806778,-0.1806124746799469,-0.6964820027351379,-0.0003875941038131714,0.006339222192764282,-0.005956530570983887
2025-09-20T02:17:41Z,0.007140656102752532,0.08316267480834715,-0.009972990111747054,-0.13388198614120483,-0.37526413798332214,-0.9171981811523438,0.041586361453912854,0.003359906744530262,-0.004833718272970554,0.9991175888622623,-0.02065831422805786,-0.1993594467639923,-0.703945517539978,-0.0008986890316009521,0.01487240195274353,-0.011456668376922607
2025-09-20T02:17:41Z,0.004155104761311708,0.08259911976180423,-0.02413069700900051,-0.13238860666751862,-0.376699298620224,-0.9168265461921692,0.04130976992608841,0.0015774894700496549,-0.011968970331625637,0.9990734653568886,-0.034263283014297485,-0.21521364152431488,-0.701078474521637,-0.0004528462886810303,0.02235373854637146,-0.014858782291412354
2025-09-20T02:17:41Z,0.0011394223945035936,0.08179099435752499,-0.03803303849786991,-0.1309714913368225,-0.37781691551208496,-0.9165701866149902,0.040887522166184714,-0.00020829427151952999,-0.01897618229924488,0.9989835711315757,-0.04336732625961304,-0.19909335672855377,-0.6728246808052063,0.0029481053352355957,0.029870539903640747,-0.021407485008239746
2025-09-20T02:17:41Z,-0.0017510992041710886,0.08092488997399998,-0.051327421481331056,-0.12959837913513184,-0.3787457048892975,-0.9163820147514343,0.04041562224042687,-0.0019125638039920012,-0.025675287559916653,0.9988511352120043,-0.037029899656772614,-0.19350403547286987,-0.6504665613174438,0.0013391226530075073,0.02439054846763611,-0.0211905837059021
2025-09-20T02:17:41Z,-0.0047143662399402415,0.08035684294862928,-0.06403355665403228,-0.12844835221767426,-0.3798215687274933,-0.9160985946655273,0.04007152042933831,-0.003639885918400695,-0.03208001976191834,0.9986750496578297,-0.01759626716375351,-0.20104263722896576,-0.6150479912757874,-0.002161175012588501,0.020638108253479004,-0.019532442092895508
2025-09-20T02:17:41Z,-0.00779760759942,0.08028827796439109,-0.07618753887212021,-0.1275554895401001,-0.38124004006385803,-0.915634036064148,0.03995557202604181,-0.005421275990119248,-0.03820994189690157,0.9984559009464578,0.010510759428143501,-0.20456042885780334,-0.6019677519798279,0.0014113038778305054,0.0050338804721832275,-0.019939184188842773
2025-09-20T02:17:41Z,-0.010777729939290432,0.08089067613690341,-0.08846231953047556,-0.1265089213848114,-0.38324227929115295,-0.9149430990219116,0.04015609632610708,-0.007167012930315681,-0.044397616799827615,0.9981808541361654,0.04816668480634689,-0.1972588747739792,-0.6229657530784607,0.004775092005729675,-0.014062315225601196,-0.023194968700408936
2025-09-20T02:17:41Z,-0.013706955900011373,0.08224221799181422,-0.10115984016509864,-0.12526051700115204,-0.3859315514564514,-0.913983941078186,0.04070977688887543,-0.00891725422904732,-0.05079581031718092,0.9978391657907149,0.07672681659460068,-0.19922727346420288,-0.6359887719154358,-0.0007994920015335083,-0.016697317361831665,-0.023000121116638184
2025-09-20T02:17:41Z,-0.016744165421768712,0.08388373830130585,-0.11391358629690446,-0.12406864762306213,-0.388841450214386,-0.9129125475883484,0.0413839486873848,-0.010737857548948996,-0.05722441127759217,0.9974454586270861,0.07312438637018204,-0.19954992830753326,-0.649550199508667,-0.00914447009563446,-0.017034143209457397,-0.022432684898376465
2025-09-20T02:17:41Z,-0.019908424339369606,0.08538113215142848,-0.12723862909754388,-0.12279225140810013,-0.3916274309158325,-0.9118936657905579,0.0419568868806227,-0.01263801408008067,-0.063939292684093,0.9969912882591483,0.05802028253674507,-0.23719778656959534,-0.6801949739456177,-0.016100995242595673,-0.018780499696731567,-0.0008707046508789062
2025-09-20T02:17:41Z,-0.023955993067579097,0.08677153597076318,-0.14146149898279636,-0.12201595306396484,-0.3943489193916321,-0.9108243584632874,0.042414918111667664,-0.015001486304578806,-0.07111842019227649,0.9964527642608911,0.05811958760023117,-0.3080562353134155,-0.734316885471344,-0.015442058444023132,-0.03658252954483032,0.01926189661026001
2025-09-20T02:17:41Z,-0.02957998949030747,0.08844942140401012,-0.15736590531653782,-0.12211331725120544,-0.3974283039569855,-0.909471869468689,0.04290735252901672,-0.018203911192807648,-0.07916817245362508,0.995771039009365,0.06707790493965149,-0.38073503971099854,-0.8644821643829346,-0.009675957262516022,-0.06943920254707336,0.014166414737701416
2025-09-20T02:17:41Z,-0.03606892036872008,0.09028711132020077,-0.1760715737270556,-0.12207070738077164,-0.40082260966300964,-0.9079867601394653,0.043362223696936444,-0.021912469244872536,-0.08862892824254133,0.9948790687952456,0.05341155081987381,-0.42722490429878235,-0.998245120048523,-0.005976982414722443,-0.07414433360099792,0.0009186267852783203
2025-09-20T02:17:41Z,-0.04279904004962185,0.09177444853575731,-0.19743914596863135,-0.12135931849479675,-0.40400511026382446,-0.9066706895828247,0.04353059364260154,-0.02579128245080491,-0.0994097870089867,0.9937592691780626,0.0071830153465271,-0.4388323128223419,-1.1259770393371582,-0.0024420395493507385,-0.06730988621711731,-0.009179830551147461
2025-09-20T02:17:41Z,-0.049708070203305484,0.09242589642040062,-0.2213305262522868,-0.11996863037347794,-0.40646928548812866,-0.9057539701461792,0.0431580771287016,-0.029773432503824207,-0.11142857405027726,0.9923882616391375,-0.047931451350450516,-0.47169268131256104,-1.2441048622131348,-0.005190402269363403,-0.05599018931388855,0.00017333030700683594
2025-09-20T02:17:41Z,-0.05711004206496058,0.09251133145474683,-0.24759743193203126,-0.11822325736284256,-0.4083935022354126,-0.9051176905632019,0.04234478530524086,-0.034009739918194726,-0.12461045221904478,0.9907181229714017,-0.08367662131786346,-0.5164967179298401,-1.3603137731552124,-0.006199561059474945,-0.049096763134002686,0.007985591888427734
2025-09-20T02:17:41Z,-0.06524006210896581,0.09241687835733584,-0.2758545992692333,-0.11644982546567917,-0.41004639863967896,-0.9046001434326172,0.04124961859298981,-0.03861761004515871,-0.13876278884546614,0.9887122499753644,-0.09918592125177383,-0.5544008016586304,-1.4258441925048828,-0.0069104209542274475,-0.025408118963241577,0.012987732887268066
2025-09-20T02:17:41Z,-0.07383624705546611,0.09234538600555206,-0.30459865048043117,-0.1148950532078743,-0.4114856421947479,-0.9041453003883362,0.03999728384382662,-0.04344128041415758,-0.1531301936081668,0.986440109314697,-0.10811793059110641,-0.5681862235069275,-1.4250166416168213,-0.0031542330980300903,-0.0024261474609375,0.010027825832366943
2025-09-20T02:17:41Z,-0.08255979769089736,0.0923018747864854,-0.3333169206644895,-0.11342695355415344,-0.41268137097358704,-0.9037855863571167,0.0386179804877186,-0.04829971366683596,-0.167447764315552,0.9839394556727789,-0.1140206828713417,-0.5658395290374756,-1.4151724576950073,0.0017208531498908997,0.006309062242507935,0.00039970874786376953
2025-09-20T02:17:41Z,-0.09117779563196247,0.09244757516542342,-0.36129831753094965,-0.11207106709480286,-0.4137592613697052,-0.9034618735313416,0.03722889040286253,-0.05307699142784153,-0.1813613834923499,0.9812770773002769,-0.11187847703695297,-0.553554117679596,-1.3591378927230835,0.002852804958820343,0.017324209213256836,-0.009516358375549316
2025-09-20T02:17:41Z,-0.09965124156930705,0.09284016244096924,-0.38803762260087893,-0.11096387356519699,-0.4147808849811554,-0.9031299948692322,0.03588399973825552,-0.05775354717228401,-0.1946249139558687,0.9785181787298006,-0.10166129469871521,-0.541020393371582,-1.2814795970916748,-0.00156470388174057,0.023085713386535645,-0.022610604763031006
2025-09-20T02:17:41Z,-0.10800027463790651,0.09346549345416287,-0.41271620028756645,-0.11039911210536957,-0.4157553017139435,-0.902751088142395,0.03461095284892395,-0.06232903395780306,-0.2068425260780272,0.9757732023936619,-0.09352736175060272,-0.5096508264541626,-1.174505352973938,0.00033805519342422485,0.025918960571289062,-0.037903666496276855
2025-09-20T02:17:41Z,-0.11563134044842087,0.0943408354598406,-0.4355431421349093,-0.1097765862941742,-0.41674870252609253,-0.9023689031600952,0.033491829072283055,-0.06652651456422927,-0.21811375232312472,0.9730770480773272,-0.071827232837677,-0.4650837182998657,-1.0916451215744019,0.0039004459977149963,0.014718353748321533,-0.04812556505203247
2025-09-20T02:17:41Z,-0.12239568871701967,0.09558175072861162,-0.45675213280901866,-0.10888263583183289,-0.417906790971756,-0.9019415378570557,0.032614680132829144,-0.07029894738483056,-0.22856013463188307,0.9704403981170202,-0.05303621292114258,-0.4061844050884247,-1.0083626508712769,0.006125167012214661,0.01890510320663452,-0.05134093761444092
2025-09-20T02:17:41Z,-0.12811864905481976,0.09699596773162138,-0.47604655666966916,-0.107667475938797,-0.41909080743789673,-0.9015378952026367,0.031939557348338934,-0.07354454749122394,-0.23803773478053197,0.9679406387721815,-0.045034345239400864,-0.35861194133758545,-0.9100499153137207,0.006511002779006958,0.033282697200775146,-0.03964656591415405
2025-09-20T02:17:41Z,-0.13313767868019463,0.0982331816858675,-0.49324216345326877,-0.10651542991399765,-0.42002153396606445,-0.9012416005134583,0.03128608203021596,-0.07638859423101635,-0.24646128699521905,0.9656307812383826,-0.05666416883468628,-0.3064976930618286,-0.7892115712165833,0.011091403663158417,0.04780608415603638,-0.02806854248046875
2025-09-20T02:17:41Z,-0.1371168743929822,0.09912988891181772,-0.5086154857240571,-0.1050441712141037,-0.42058125138282776,-0.9011532068252563,0.030625586422124214,-0.07865498391601908,-0.2539611201272199,0.9635243935612792,-0.056797128170728683,-0.2528510093688965,-0.7416689991950989,0.01168648898601532,0.025514721870422363,-0.01655256748199463
2025-09-20T02:17:42Z,-0.14062324755891686,0.10012980833349683,-0.5236561878700184,-0.10325538367033005,-0.42116492986679077,-0.9010873436927795,0.030056817102650936,-0.08069603524817934,-0.2612796187263223,0.9614144570889752,-0.05261131748557091,-0.2501663267612457,-0.7490546107292175,0.0005302503705024719,0.018032073974609375,-0.000379025936126709
2025-09-20T02:17:42Z,-0.1440892194222047,0.1010172269359484,-0.53844754349123,-0.10152516514062881,-0.4215795695781708,-0.9010900855064392,0.02942055560372242,-0.08269473206285671,-0.2684581957475194,0.959284275332578,-0.06635869294404984,-0.2533548176288605,-0.7045658826828003,-0.005885995924472809,0.039498090744018555,0.0073184967041015625
2025-09-20T02:17:42Z,-0.14786019399746897,0.1014481899862228,-0.5521409525313523,-0.10046195238828659,-0.4215455651283264,-0.9012251496315002,0.028541795761216925,-0.0847570224331038,-0.2750860552075345,0.9572508519818062,-0.08186627924442291,-0.2662609815597534,-0.6552402973175049,-0.0083998441696167,0.04335173964500427,0.001354217529296875
2025-09-20T02:17:42Z,-0.15202514873211048,0.10140973734202775,-0.5647519576549779,-0.10014291852712631,-0.42106571793556213,-0.9014849066734314,0.027402908948728544,-0.08691965729215723,-0.2811730751126149,0.9553196879185832,-0.10447496175765991,-0.26444923877716064,-0.5790954828262329,-0.006347648799419403,0.041865646839141846,-0.017793476581573486
2025-09-20T02:17:42Z,-0.15599952688581115,0.10097801459988616,-0.5761812869287518,-0.10006896406412125,-0.42022639513015747,-0.9018846750259399,0.026129797447598333,-0.08890958854785845,-0.2866676726902574,0.9535375807741363,-0.10118351131677628,-0.24856337904930115,-0.5406898856163025,-0.0018795430660247803,0.013685822486877441,-0.03216540813446045
2025-09-20T02:17:42Z,-0.16001818573302865,0.10085851110242888,-0.5873280164867538,-0.10011564195156097,-0.4196402132511139,-0.902152419090271,0.024990130423260964,-0.09094939849715604,-0.2920248241522705,0.9517484875554072,-0.07440036535263062,-0.2680535912513733,-0.5518306493759155,-0.0091342031955719,-0.01279836893081665,-0.033755719661712646
2025-09-20T02:17:42Z,-0.16444194414256363,0.10122840407262296,-0.5984147535810839,-0.10052350908517838,-0.4194602370262146,-0.9021907448768616,0.02400407474945198,-0.09324137157174298,-0.2973613812343318,0.9498979357396495,-0.061274006962776184,-0.28747063875198364,-0.537540078163147,-0.013337261974811554,-0.010037094354629517,-0.03418916463851929
2025-09-20T02:17:42Z,-0.1693097368101222,0.10169387997775907,-0.6089457483882526,-0.10151183605194092,-0.4193558096885681,-0.9021286368370056,0.022998055032972833,-0.09574278597992522,-0.3024304808569227,0.9480718387761744,-0.05468917265534401,-0.29811352491378784,-0.4969883859157562,-0.01592225581407547,-0.00043201446533203125,-0.029699385166168213
2025-09-20T02:17:42Z,-0.1742703961321648,0.10231992111642436,-0.6188238987304301,-0.10278856754302979,-0.41939687728881836,-0.9019649624824524,0.022060156039846568,-0.09829621358369105,-0.30718536911563216,0.9463024585305959,-0.04047812893986702,-0.30197909474372864,-0.47775137424468994,-0.014331042766571045,-0.001950383186340332,-0.022501766681671143
2025-09-20T02:17:42Z,-0.17925138246328381,0.10334232102218477,-0.6282999139815865,-0.10418867319822311,-0.419788658618927,-0.9016219973564148,0.021302231281871763,-0.10090732037096223,-0.3117536829459642,0.9445493787265321,-0.020798692479729652,-0.2909010052680969,-0.46348023414611816,-0.011611402034759521,-0.001394510269165039,-0.015077590942382812
2025-09-20T02:17:42Z,-0.18407419351642224,0.10480910433367095,-0.6372994685282316,-0.10556796938180923,-0.42058253288269043,-0.9010913968086243,0.020779575670846154,-0.10350128988213367,-0.3161021466405787,0.9428335640009036,-0.0008699055761098862,-0.27655860781669617,-0.4419393837451935,-0.007615372538566589,0.009742528200149536,-0.0005080699920654297
2025-09-20T02:17:42Z,-0.18864180129111402,0.10643211435298182,-0.6456478233917775,-0.10691358149051666,-0.4215323328971863,-0.9004887342453003,0.02038279126034063,-0.10598918407891283,-0.32013941357305215,0.9412022371130033,0.007659687660634518,-0.27046889066696167,-0.4013608992099762,-0.005180574953556061,0.021858572959899902,0.010762453079223633
2025-09-20T02:17:42Z,-0.19315282801843833,0.10791913868220275,-0.6534180841722278,-0.10840292274951935,-0.42237403988838196,-0.8999161124229431,0.019941612070825353,-0.10842090240234686,-0.32389299341523625,0.9396491736989484,-0.008109611459076405,-0.2597257196903229,-0.3804892301559448,-0.005045115947723389,0.01975381374359131,-0.0006235241889953613
2025-09-20T02:17:42Z,-0.19717426098402485,0.10884406422743292,-0.6606954036045707,-0.10965477675199509,-0.4227214455604553,-0.8996012210845947,0.019324301488708708,-0.11052624049255512,-0.32738345543166425,0.9382060537971966,-0.03478481248021126,-0.2181473672389984,-0.3476278781890869,-0.00182410329580307,0.0202578604221344,-0.018381178379058838
2025-09-20T02:17:42Z,-0.20046420338611096,0.10920601863725954,-0.6675462307523192,-0.11043314635753632,-0.42257314920425415,-0.8995757102966309,0.018571948055765505,-0.11219107502616654,-0.330639857985977,0.9368807560757655,-0.05832613632082939,-0.19147889316082,-0.3316824734210968,-0.00010285526514053345,0.008817136287689209,-0.029090583324432373
2025-09-20T02:17:42Z,-0.20352950337170211,0.10912058565551815,-0.6743143565192457,-0.1110781654715538,-0.4220116138458252,-0.8997598886489868,0.01764042832300559,-0.11367351859521749,-0.3338325816227619,0.9355870020825978,-0.07985485345125198,-0.185846209526062,-0.31736505031585693,-0.0033729523420333862,0.0015061497688293457,-0.03501039743423462
2025-09-20T02:17:42Z,-0.20642750240582441,0.10850536902636243,-0.6806893720413829,-0.11174682527780533,-0.42098596692085266,-0.9001574516296387,0.0165013752223394,-0.1149828048092894,-0.3368134758064525,0.9343786349539115,-0.1065308004617691,-0.17537280917167664,-0.290473997592926,-0.007536530494689941,0.008186280727386475,-0.04174917936325073
2025-09-20T02:17:42Z,-0.2092372848301978,0.10713439283566184,-0.6864439162832671,-0.11260148137807846,-0.4193110764026642,-0.90083247423172,0.015051143557916407,-0.11611558556982432,-0.33946800342333955,0.933301651775794,-0.13745473325252533,-0.15437911450862885,-0.23012714087963104,-0.008908957242965698,0.02902853488922119,-0.03972780704498291
2025-09-20T02:17:42Z,-0.210850734651994,0.10468392151428273,-0.6895472336010202,-0.11330326646566391,-0.4168541133403778,-0.901884138584137,0.013448494948497721,-0.11648644161620589,-0.340828264113604,0.9327840257906417,-0.13903991878032684,-0.09416431188583374,-0.11761898547410965,-0.0013056322932243347,0.0425889790058136,-0.03561115264892578
2025-09-20T02:17:42Z,-0.2124714531272769,0.10223846758553752,-0.6926537128023464,-0.11401329934597015,-0.4143957793712616,-0.9029269814491272,0.0118457878135674,-0.11685675712316201,-0.34218686808117305,0.9322619195209473,-0.14062508940696716,-0.033949509263038635,-0.005110830068588257,0.006305903196334839,0.05614808201789856,-0.031503260135650635
2025-09-20T02:17:42Z,-0.212742714245993,0.09944212106009467,-0.6922287658648708,-0.11463423818349838,-0.4118921756744385,-0.9039932489395142,0.01051553059986772,-0.11651668586453906,-0.341874695634418,0.9324349376568031,-0.11289194971323013,0.028946153819561005,0.127521350979805,0.008104175329208374,0.05652913451194763,-0.032293736934661865
2025-09-20T02:17:42Z,-0.21194360896686953,0.09659048799367603,-0.6887999754787886,-0.11522488296031952,-0.4095688462257385,-0.9049732685089111,0.009515774844863331,-0.11565451502128012,-0.34015298616245215,0.9331823890430517,-0.08864787220954895,0.08782413601875305,0.27389228343963623,0.009418860077857971,0.06052467226982117,-0.03607410192489624
2025-09-20T02:17:42Z,-0.2102311571016227,0.09338601978403434,-0.6824208770787329,-0.1159362867474556,-0.40714117884635925,-0.9059773087501526,0.008670796879426167,-0.11429852189192019,-0.3370333147753625,0.9344887205208158,-0.08084332197904587,0.13955122232437134,0.41835612058639526,0.007498428225517273,0.06523516774177551,-0.040916621685028076
2025-09-20T02:17:42Z,-0.2078214679097386,0.08948462199315803,-0.6728749928945429,-0.11706291884183884,-0.40429192781448364,-0.9071076512336731,0.007784379227683334,-0.1124968097392309,-0.3323963730905348,0.9363740922825762,-0.09575510025024414,0.19233554601669312,0.5996891260147095,0.004902854561805725,0.08280563354492188,-0.047468721866607666
2025-09-20T02:17:42Z,-0.20432767654102246,0.0843380605202941,-0.6590814205015197,-0.11864101141691208,-0.4005618691444397,-0.9085562825202942,0.006705884392876095,-0.10998374188354118,-0.32570300614290537,0.9390293012699624,-0.1147480458021164,0.2968626022338867,0.8448181748390198,0.0058153048157691956,0.099331796169281,-0.06300389766693115
2025-09-20T02:17:42Z,-0.19890442540919417,0.07819054657623291,-0.6402730152152832,-0.12012766301631927,-0.39615875482559204,-0.9102898240089417,0.005694378255816828,-0.1064109680388703,-0.31658541418599206,0.9425591877340618,-0.09588408470153809,0.39895960688591003,1.0926086902618408,0.007713593542575836,0.08689278364181519,-0.06150001287460327
2025-09-20T02:17:42Z,-0.19154584365614577,0.07219531208221543,-0.617412425177495,-0.12112975865602493,-0.39199134707450867,-0.9119596481323242,0.0051912472788327784,-0.10196150361938107,-0.3055249057940946,0.9466949556759388,-0.04165945574641228,0.48288488388061523,1.2587522268295288,0.00881887972354889,0.055794477462768555,-0.04887115955352783
2025-09-20T02:17:42Z,-0.1833816065092993,0.06705002982997182,-0.5915556826732562,-0.12230264395475388,-0.38856378197669983,-0.9132689833641052,0.005254545764759629,-0.0972662730274016,-0.2930322780755924,0.9511275471360617,0.01738569140434265,0.5157285928726196,1.3704382181167603,0.001828312873840332,0.04313167929649353,-0.028502345085144043
2025-09-20T02:17:42Z,-0.17461318510648655,0.06260732049283628,-0.563251421996084,-0.1236804723739624,-0.38564857840538025,-0.9143185019493103,0.0057296610566091736,-0.09238489671569558,-0.2793451160005352,0.9557187541733869,0.045504916459321976,0.5454140901565552,1.4931292533874512,-0.0036025196313858032,0.05607536435127258,-0.024663567543029785
2025-09-20T02:17:42Z,-0.1647815032895405,0.058127242095651184,-0.5319360100735151,-0.12508198618888855,-0.3825122117996216,-0.9154446125030518,0.0063204066006874796,-0.08698253240857393,-0.26414857395485725,0.9605308206462301,0.04293014109134674,0.6419513821601868,1.6624386310577393,-0.0074615925550460815,0.06177806854248047,-0.040218472480773926
2025-09-20T02:17:42Z,-0.15314679549044624,0.05392518727146096,-0.4978069638349088,-0.12574461102485657,-0.37934964895248413,-0.9166690707206726,0.0072140419408647585,-0.08073592863415724,-0.24752904094626982,0.965483853698149,0.08997055888175964,0.6890507936477661,1.7605845928192139,-0.020603269338607788,0.025089293718338013,-0.025334596633911133
2025-09-20T02:17:42Z,-0.14163303041430234,0.0510912400990968,-0.4622652407096125,-0.12691208720207214,-0.37707123160362244,-0.9174478650093079,0.008597461295005908,-0.07468994891665874,-0.23019072100152524,0.970236949719496,0.14852067828178406,0.6604689955711365,1.7786974906921387,-0.026670441031455994,-0.00048616528511047363,-0.009805917739868164
2025-09-20T02:17:42Z,-0.13029032009061517,0.049552544008475134,-0.42640030303636994,-0.12828296422958374,-0.3755726218223572,-0.9178718328475952,0.01039146673656238,-0.06883636738434784,-0.21265128786243748,0.9746450455750632,0.17391079664230347,0.6520237326622009,1.7957786321640015,-0.02210111916065216,0.005590260028839111,-0.019804179668426514
2025-09-20T02:17:42Z,-0.11874081036426996,0.04828343128593387,-0.38983278621894246,-0.12967854738235474,-0.37388622760772705,-0.9183640480041504,0.012151512978439314,-0.06286217220746523,-0.19469212717371864,0.9787724795472293,0.15127316117286682,0.6889165043830872,1.8389508724212646,-0.026139140129089355,0.021820664405822754,-0.03584712743759155
2025-09-20T02:17:42Z,-0.10640900804095675,0.046835462466478225,-0.3524759583969425,-0.13059905171394348,-0.3715689182281494,-0.9191737771034241,0.013699034904358358,-0.056440897590785466,-0.17625693017314548,0.982629181694185,0.1353435218334198,0.7258282899856567,1.8676847219467163,-0.02969740331172943,0.014539361000061035,-0.0272027850151062
2025-09-20T02:17:42Z,-0.09371883763699805,0.04606434210347405,-0.31526818066711837,-0.13107255101203918,-0.3694288432598114,-0.9199686646461487,0.015368181189337403,-0.04986058031208484,-0.1578335845279882,0.9860862644674022,0.16404393315315247,0.691633403301239,1.829795241355896,-0.03305208683013916,-0.01521715521812439,0.001215517520904541
2025-09-20T02:17:42Z,-0.08221176671516449,0.04665048290000939,-0.27925358014267504,-0.13214761018753052,-0.36816439032554626,-0.9203217029571533,0.017358950983631112,-0.04392652840545213,-0.13996727431561856,0.9890289803795443,0.20476844906806946,0.6362836360931396,1.7423659563064575,-0.032065242528915405,-0.03536289930343628,0.007521450519561768
2025-09-20T02:17:42Z,-0.07132389980853633,0.04826111339376876,-0.2449174809323547,-0.13316260278224945,-0.36754313111305237,-0.920423686504364,0.019578280346794836,-0.03832254236683004,-0.12289353222482852,0.9914863628266358,0.20836152136325836,0.616489589214325,1.6632364988327026,-0.02443583309650421,-0.0286521315574646,-0.004652261734008789
2025-09-20T02:17:42Z,-0.0605457394461919,0.04996276161769745,-0.2121167944177487,-0.13372032344341278,-0.3667457103729248,-0.9206608533859253,0.021623861505255467,-0.03273181548069034,-0.10652997854608519,0.9935352707402625,0.16947206854820251,0.6281298398971558,1.598720669746399,-0.025132134556770325,-0.015192568302154541,-0.01563340425491333
2025-09-20T02:17:42Z,-0.04943524276948645,0.05123592422846416,-0.18046114477647876,-0.13354329764842987,-0.3653075098991394,-0.9212581515312195,0.023276861779760707,-0.02691391667290638,-0.09068160852811062,0.9952440401251332,0.13967560231685638,0.6397815346717834,1.5386046171188354,-0.023493945598602295,-0.02051493525505066,-0.005465567111968994
2025-09-20T02:17:42Z,-0.03856854776429307,0.05284144638489204,-0.1505888049269204,-0.132940411567688,-0.36403313279151917,-0.9218496084213257,0.02488787164514345,-0.021208585073411324,-0.07569101089372679,0.9965950730366823,0.15808846056461334,0.5811694860458374,1.4179590940475464,-0.025447160005569458,-0.05332568287849426,0.017644941806793213
2025-09-20T02:17:42Z,-0.029703395329996406,0.05540368227040565,-0.1236147707589598,-0.13318559527397156,-0.3636709153652191,-0.9219571948051453,0.02672538499860898,-0.01652778711214047,-0.06214809676038954,0.997572184072962,0.18348804116249084,0.46201881766319275,1.2622060775756836,-0.027505546808242798,-0.06471896171569824,0.030131638050079346
2025-09-20T02:17:42Z,-0.022876902982626877,0.0584471236902133,-0.09965780034226909,-0.1343051642179489,-0.3638678193092346,-0.9217170476913452,0.028611752139774082,-0.012874400149903082,-0.05011756101698383,0.9982503952050165,0.172184020280838,0.3621494770050049,1.1232929229736328,-0.021496877074241638,-0.05010351538658142,0.01739901304244995
2025-09-20T02:17:42Z,-0.017270053931923258,0.060823332908577124,-0.07814937585909064,-0.13574638962745667,-0.36356255412101746,-0.9216263890266418,0.030045470721925326,-0.00981213523941107,-0.03930758715588103,0.9987271500851709,0.10466131567955017,0.3361245393753052,1.0245511531829834,-0.009345188736915588,-0.027113795280456543,-0.004934191703796387
2025-09-20T02:17:42Z,-0.01181966565670372,0.06217978708601506,-0.058382415074449794,-0.13675609230995178,-0.36239197850227356,-0.9219380617141724,0.030898693264338105,-0.006811686598164178,-0.029356074993142828,0.9990681102688804,0.06349769979715347,0.3198884427547455,0.923858106136322,0.0018961280584335327,-0.035646259784698486,-0.003284454345703125
2025-09-20T02:17:42Z,-0.007457412762091793,0.06321635729142167,-0.041091521267373275,-0.1379738301038742,-0.36113208532333374,-0.9222509860992432,0.031519460186428525,-0.00437530432938519,-0.02065172304116549,0.9992802041596143,0.056744255125522614,0.22528885304927826,0.7959190607070923,-0.0038091540336608887,-0.049173593521118164,0.012994170188903809
2025-09-20T02:17:42Z,-0.004631711882740464,0.06430012908103533,-0.02628830099376598,-0.1398233026266098,-0.3601629137992859,-0.9223514199256897,0.03211123933336739,-0.0027369562764199573,-0.013211379798673607,0.999393256325376,0.05702235549688339,0.1538671851158142,0.684573769569397,-0.0027332156896591187,-0.04599595069885254,0.006318628787994385
2025-09-20T02:17:42Z,-0.0032248758691983074,0.06527764837670146,-0.013039220788940546,-0.14248895645141602,-0.3592466413974762,-0.9223008155822754,0.03262178852341283,-0.0018242971789247029,-0.0065687013765610945,0.9994444633992211,0.03797818720340729,0.085643470287323,0.6371400356292725,-0.006212159991264343,-0.020727723836898804,-0.0009418129920959473
2025-09-20T02:17:42Z,-0.0024272852303220656,0.06556589217643854,-0.00048777883995283235,-0.14548619091510773,-0.3577418625354767,-0.9224177598953247,0.03277675521424169,-0.0012209842212626445,-0.00028353785689994466,0.9994618554470883,0.0268364530056715,0.08465860784053802,0.6201037168502808,0.0008530020713806152,-0.019463717937469482,-0.006265997886657715
2025-09-20T02:17:42Z,-0.0016333897837906236,0.06586410856530144,0.012063653730507225,-0.1484641432762146,-0.3561996817588806,-0.9225400686264038,0.03293041843277986,-0.0006176338745135101,0.006001628211600817,0.9994393482738267,0.015694718807935715,0.08367374539375305,0.6030673980712891,0.007898896932601929,-0.01823711395263672,-0.011584758758544922
2025-09-20T02:17:43Z,-0.0006207005422962986,0.06646902005045241,0.023677079679509418,-0.15094216167926788,-0.35503512620925903,-0.9225868582725525,0.03322973738041283,8.320937180136928e-05,0.011821414890038889,0.9993777259503498,0.039948754012584686,0.09692995250225067,0.550353467464447,0.011861830949783325,-0.0330805778503418,-0.012449324131011963
2025-09-20T02:17:43Z,0.0006194768922297816,0.06753262127153468,0.03426912727346872,-0.15289270877838135,-0.35441088676452637,-0.9225056767463684,0.033749632618794184,0.0008879491327899901,0.01713441260611064,0.999283052946963,0.06424789130687714,0.10456284880638123,0.5008096694946289,0.008185788989067078,-0.03431779146194458,-0.012078404426574707
2025-09-20T02:17:43Z,0.001995794028972724,0.06888543705002774,0.04399872426356022,-0.1544511318206787,-0.3541550934314728,-0.9223443269729614,0.03440561919873996,0.00175457006797056,0.022018884198776865,0.9991638719162995,0.06055983155965805,0.09888765215873718,0.46852079033851624,-0.0009757131338119507,-0.022711724042892456,-0.012029111385345459
2025-09-20T02:17:43Z,0.0034043015654864877,0.06996208079966014,0.053268159795360266,-0.15583278238773346,-0.3536899983882904,-0.9222903847694397,0.03491614858842095,0.0026318914954282136,0.02667410920741699,0.999030778724306,0.040056295692920685,0.09975583106279373,0.46098512411117554,-0.0066967010498046875,-0.007931411266326904,-0.011290013790130615
2025-09-20T02:17:43Z,0.004873280545562715,0.07070720963635085,0.062414332115565296,-0.15710952877998352,-0.35291439294815063,-0.9223709106445312,0.03525294278996943,0.003536802961278855,0.03126859320037108,0.9988829327185212,0.023583050817251205,0.10939063876867294,0.4509725868701935,-0.0036308765411376953,-0.011255532503128052,-0.015562474727630615
2025-09-20T02:17:43Z,0.00702429299895104,0.07137402386919234,0.0712225190008697,-0.15764696896076202,-0.35209792852401733,-0.9225912094116211,0.03553162905279841,0.0047779907295958995,0.03570607441184177,0.9987191000560883,0.03759411722421646,0.16491441428661346,0.4234151244163513,0.0074042826890945435,-0.030698180198669434,-0.023138463497161865
2025-09-20T02:17:43Z,0.009682310376086696,0.07255245130963107,0.07920097780085324,-0.15746966004371643,-0.35186851024627686,-0.9227089881896973,0.03604787497449433,0.006270007139144101,0.0397390701925262,0.9985399782115835,0.0630103349685669,0.16046100854873657,0.376905232667923,-0.005413949489593506,-0.04085993766784668,-0.018339037895202637
2025-09-20T02:17:43Z,0.012353743609632107,0.07389781210823411,0.08665616860436787,-0.15712259709835052,-0.35186246037483215,-0.9227704405784607,0.036637760721657586,0.007766852903894073,0.043512098809727145,0.9983507037308375,0.058381956070661545,0.16636697947978973,0.36024314165115356,-0.010500863194465637,-0.028221160173416138,-0.025829970836639404
2025-09-20T02:17:43Z,0.015282819325518478,0.07497023650731138,0.0939162185353514,-0.15647274255752563,-0.3516223132610321,-0.9229723811149597,0.0370754976964077,0.009386670228847127,0.04719256304588531,0.9981533622339017,0.03840740770101547,0.1815226525068283,0.3645591735839844,-0.014323115348815918,-0.015424758195877075,-0.02270209789276123
2025-09-20T02:17:43Z,0.018532653681180875,0.07596976319114389,0.10139698856416454,-0.15557925403118134,-0.35126209259033203,-0.9232605695724487,0.03745608278028493,0.011172018684443726,0.05098948789239631,0.9979340113294826,0.053710244596004486,0.1910822093486786,0.3796088397502899,-0.01544882357120514,-0.014916867017745972,-0.009385287761688232
2025-09-20T02:17:43Z,0.021718002772232882,0.0778017002261838,0.10895649193750781,-0.15476363897323608,-0.35163798928260803,-0.9232545495033264,0.0382402256540439,0.012952018663158805,0.05482858457216517,0.9976791541828699,0.11388096213340759,0.18937529623508453,0.3770895302295685,-0.01662665605545044,-0.027118653059005737,-0.0018170475959777832
2025-09-20T02:17:43Z,0.024907147891124696,0.08084218411705366,0.1164073868632101,-0.15391655266284943,-0.3531269431114197,-0.9228277802467346,0.03961470471771101,0.014772515707919178,0.05862119933763879,0.997384575767536,0.15729151666164398,0.1978365033864975,0.3714856505393982,-0.01598118245601654,-0.02218654751777649,-0.011694192886352539
2025-09-20T02:17:43Z,0.028612838286148128,0.08420628747600933,0.12394318600775701,-0.15261413156986237,-0.3548797369003296,-0.9223715662956238,0.04112039797090084,0.016872306669159096,0.062471705727980845,0.9970565664730972,0.148523211479187,0.23856444656848907,0.39201557636260986,-0.014715775847434998,0.0019252300262451172,-0.0223006010055542
2025-09-20T02:17:43Z,0.032803664406507976,0.08719567076726002,0.1325689915880808,-0.15115436911582947,-0.35607340931892395,-0.9221518635749817,0.042397154365283365,0.01923597095751406,0.06687738383440198,0.9966744056301828,0.13987234234809875,0.23702125251293182,0.42056024074554443,-0.015558406710624695,0.00260847806930542,-0.009530842304229736
2025-09-20T02:17:43Z,0.03696956853020433,0.09022094198661157,0.14118445487488943,-0.1497061401605606,-0.35727912187576294,-0.9219217300415039,0.04367277690069635,0.021599121895719563,0.07128127275081864,0.9962655818487158,0.1312214732170105,0.23547804355621338,0.449104905128479,-0.01638953387737274,0.003303736448287964,0.003228425979614258
2025-09-20T02:17:43Z,0.04056173504751092,0.09351933356756707,0.1506262179534152,-0.14900511503219604,-0.35855892300605774,-0.9215383529663086,0.045076343623060816,0.02371617050151923,0.07608946331707128,0.9957992003880846,0.1557893306016922,0.22044338285923004,0.4971151351928711,-0.01782780885696411,0.0027259886264801025,0.00885683298110962
2025-09-20T02:17:43Z,0.04371542180783418,0.09739330336761029,0.16123215594607973,-0.14901766180992126,-0.36011868715286255,-0.9209279417991638,0.04674978160252198,0.02567816166893812,0.08147455211275546,0.9952471409290137,0.18810883164405823,0.19501464068889618,0.5612372756004333,-0.022228360176086426,0.002520352602005005,0.01142585277557373
2025-09-20T02:17:43Z,0.04626845208619436,0.10173882776072175,0.17275989912010312,-0.14982017874717712,-0.36189842224121094,-0.920099675655365,0.04865125347083356,0.027401674652431946,0.08730974456365895,0.9946150652042872,0.19597354531288147,0.1833767294883728,0.59941565990448,-0.024635151028633118,-0.0015090405941009521,0.0009133815765380859
2025-09-20T02:17:43Z,0.04858673831443691,0.10605207534895227,0.18488239831891087,-0.15097418427467346,-0.3634929656982422,-0.9192821383476257,0.0505201882871788,0.02904434787529578,0.09343461498955982,0.9939184732321823,0.1772986352443695,0.17531637847423553,0.6169651746749878,-0.022956281900405884,-0.0006878674030303955,-0.006098568439483643
2025-09-20T02:17:43Z,0.05070581095944797,0.10995837254392019,0.19715177706037623,-0.1523175686597824,-0.3646451234817505,-0.9186040163040161,0.052176044086667636,0.030595390179100467,0.09962230082563582,0.9931852861200561,0.15563654899597168,0.18023687601089478,0.607997477054596,-0.010287225246429443,-0.0069720447063446045,-0.012137889862060547
2025-09-20T02:17:43Z,0.053123165289712594,0.11341962084569522,0.2088895767630988,-0.15321414172649384,-0.36545661091804504,-0.9181323051452637,0.05358626400771322,0.03227829741379865,0.10554779897609853,0.992444620078028,0.12601782381534576,0.19733665883541107,0.5603744387626648,0.0014320909976959229,-0.016873687505722046,-0.01816093921661377
2025-09-20T02:17:43Z,0.05601595664728407,0.11622533257920592,0.21936485014046123,-0.1533122956752777,-0.3658914864063263,-0.9179427027702332,0.054648061046122076,0.03414413905574397,0.11085171516469028,0.9917457830195635,0.09759645909070969,0.20354962348937988,0.5010143518447876,0.0011842846870422363,-0.015062034130096436,-0.012197494506835938
2025-09-20T02:17:43Z,0.05871728718802563,0.11850504953879826,0.22893947135297466,-0.1533254086971283,-0.3660046458244324,-0.9178953766822815,0.055457979454004186,0.03587208192457531,0.11569725804654789,0.9910861555611103,0.08152980357408524,0.21243296563625336,0.4506189823150635,0.0023448318243026733,-0.014973163604736328,-0.012465298175811768
2025-09-20T02:17:43Z,0.06199554305110465,0.12066210387814962,0.23740654782834059,-0.15250878036022186,-0.36621248722076416,-0.9179485440254211,0.05617777395704186,0.03785564776486123,0.12000801172538847,0.9904589802059603,0.09277564287185669,0.20874936878681183,0.3883059322834015,0.006154194474220276,-0.025267302989959717,-0.005709290504455566
2025-09-20T02:17:43Z,0.0652440642966386,0.1237078599518501,0.24300978548385924,-0.151008740067482,-0.3678058981895447,-0.9175593852996826,0.05738038631339639,0.039802176900636047,0.12291128566280367,0.9899575896007594,0.11153623461723328,0.19185936450958252,0.3304019272327423,0.003682851791381836,-0.025671541690826416,-0.006712973117828369
2025-09-20T02:17:43Z,0.06847656286632112,0.12677161433878534,0.2486051677803928,-0.1495194137096405,-0.3694068193435669,-0.9171600341796875,0.058582199955536776,0.04174814565013821,0.12581285126798886,0.9894423735878953,0.13029682636260986,0.1749693602323532,0.27249789237976074,0.0012222528457641602,-0.026068270206451416,-0.007726848125457764
2025-09-20T02:17:43Z,0.07169301043639083,0.12985323241610874,0.25419273559794286,-0.14804089069366455,-0.37101516127586365,-0.9167505502700806,0.0597831877110473,0.043693534644717466,0.12871265764506254,0.9889133941805975,0.14905743300914764,0.1580793708562851,0.21459388732910156,-0.001227542757987976,-0.026457548141479492,-0.0087507963180542
2025-09-20T02:17:43Z,0.07427730608336627,0.1331264071082771,0.2580339198092023,-0.1467130035161972,-0.37315744161605835,-0.9160943031311035,0.06114921661076239,0.04529174050777835,0.13073505758168283,0.9884925782164082,0.14249499142169952,0.13841712474822998,0.19024497270584106,-0.0005238205194473267,-0.02018815279006958,-0.02092897891998291
2025-09-20T02:17:43Z,0.07697450214408709,0.13628655282207972,0.261487735122556,-0.14518462121486664,-0.3752734363079071,-0.915473222732544,0.0624546553898594,0.04693132370132613,0.13257042505733696,0.988089953726934,0.1431676149368286,0.17463251948356628,0.1666605919599533,0.014876648783683777,-0.024987846612930298,-0.03188961744308472
2025-09-20T02:17:43Z,0.08045414646470657,0.13955240645731506,0.264298269237509,-0.14278791844844818,-0.37761616706848145,-0.9148866534233093,0.06376961085149045,0.04894773166722526,0.13411728288736188,0.9876994007316815,0.1516936719417572,0.20751677453517914,0.1399403214454651,0.015748605132102966,-0.030754894018173218,-0.027829647064208984
2025-09-20T02:17:43Z,0.08425974647265494,0.1428435437867365,0.26675305934829735,-0.1400115191936493,-0.3800524175167084,-0.9143068194389343,0.06507796064566175,0.051118199574039194,0.13550355537499162,0.9873148481501044,0.15067742764949799,0.19609776139259338,0.12359653413295746,0.004928424954414368,-0.02792578935623169,-0.014892637729644775
2025-09-20T02:17:43Z,0.08777210808964979,0.14591573490269671,0.2687562309755813,-0.13739123940467834,-0.38238391280174255,-0.9137320518493652,0.06630439442886671,0.053117184752315916,0.1366581347976813,0.9869685443495358,0.13332030177116394,0.18946275115013123,0.10749511420726776,0.0011538118124008179,-0.023386448621749878,-0.014617204666137695
2025-09-20T02:17:43Z,0.09163222746279948,0.14855347122684637,0.27043358880234913,-0.13436424732208252,-0.3843914568424225,-0.9133397340774536,0.06729686541447984,0.05525008103130396,0.13766009452533165,0.9866449740271239,0.12116150557994843,0.20356494188308716,0.08046992123126984,0.009697876870632172,-0.02988603711128235,-0.006649971008300781
2025-09-20T02:17:43Z,0.09506217533323058,0.15127023620394298,0.271412123033858,-0.13156799972057343,-0.38661715388298035,-0.9128072261810303,0.06837406698595196,0.057153135751761584,0.13830799345353273,0.9863718752766404,0.1353224515914917,0.1632629632949829,0.0449027456343174,0.0013792365789413452,-0.03811824321746826,0.0037596821784973145
2025-09-20T02:17:43Z,0.0982356290592206,0.1541126491595834,0.27200733052197706,-0.12892313301563263,-0.3890349268913269,-0.9121571779251099,0.06954005613228613,0.058925075083591835,0.1387640797833527,0.986121997543808,0.14017809927463531,0.16217999160289764,0.04339335113763809,0.004175171256065369,-0.032096803188323975,-0.0063315629959106445
2025-09-20T02:17:43Z,0.10157364172914926,0.1569588628900891,0.27249902510572727,-0.12610937654972076,-0.39147523045539856,-0.9115062355995178,0.07069807562367102,0.06077478005227042,0.13917871912219926,0.9858689057083674,0.1316622793674469,0.17299169301986694,0.03401025012135506,0.005493879318237305,-0.029074788093566895,-0.009372889995574951
2025-09-20T02:17:43Z,0.10474268271018095,0.15960347289876992,0.27292225685540944,-0.12343109399080276,-0.39374712109565735,-0.9108940362930298,0.0717691281846344,0.06252539853494837,0.13955332773824344,0.9856290611130708,0.12004908174276352,0.14810942113399506,0.030856216326355934,0.0016434192657470703,-0.023396223783493042,0.006127119064331055
2025-09-20T02:17:43Z,0.10731697722640608,0.16190784900899846,0.27304359036398024,-0.12121254205703735,-0.39577779173851013,-0.910311758518219,0.07272239034077867,0.0639494997880163,0.13975382369068948,0.9854394307390709,0.0962250828742981,0.11068539321422577,0.005355143919587135,0.00016026943922042847,-0.02497527003288269,0.010152220726013184
2025-09-20T02:17:43Z,0.10927431124651261,0.16344652640790452,0.27288215416680195,-0.11945806443691254,-0.39718466997146606,-0.9099308252334595,0.07334982387334858,0.06500879015187379,0.13977839026851796,0.9853200923545719,0.04560583457350731,0.07922440767288208,-0.009248655289411545,-0.0032888129353523254,-0.016534149646759033,0.006815552711486816
2025-09-20T02:17:43Z,0.11066242423328775,0.1637839453456898,0.27253884486782537,-0.118126779794693,-0.397559255361557,-0.9099410176277161,0.0734305032537334,0.06570211998434274,0.1396674809160505,0.9852838099764001,-0.010854411870241165,0.05249309539794922,-0.02024615742266178,-0.0026605799794197083,-0.013595938682556152,0.008266746997833252
2025-09-20T02:17:43Z,0.11155588480359148,0.16311001896245803,0.27173620238736396,-0.11709008365869522,-0.39713096618652344,-0.9102619886398315,0.07306220627934822,0.06606891974009056,0.13929002428859102,0.9853401041274643,-0.0488976426422596,0.01411047950387001,-0.07312172651290894,0.002221539616584778,-0.034624308347702026,0.010170936584472656
2025-09-20T02:17:43Z,0.11162643385614357,0.1616927253783716,0.26955395796631,-0.11643542349338531,-0.396335244178772,-0.9106926918029785,0.07243012948021818,0.06593234252027655,0.13818606361922475,0.9855513272770027,-0.07562696933746338,-0.041279084980487823,-0.14478638768196106,-0.00043298304080963135,-0.04311835765838623,0.0065160393714904785
2025-09-20T02:17:43Z,0.11078747444974538,0.1595466966171514,0.2664235751732958,-0.11634628474712372,-0.39508992433547974,-0.9112450480461121,0.07153146271302956,0.06526826457682024,0.13656560314287958,0.9858869902011225,-0.10977807641029358,-0.08229756355285645,-0.18959981203079224,-0.001161433756351471,-0.03496977686882019,-0.0033138394355773926
2025-09-20T02:17:43Z,0.10942899371428032,0.15605733947403466,0.26192936560852426,-0.11633947491645813,-0.39293038845062256,-0.912179172039032,0.07004642861241901,0.06421815208683915,0.1342247837358044,0.9863839169156645,-0.14903706312179565,-0.09212487190961838,-0.2281908094882965,0.002122446894645691,-0.026632875204086304,-0.010175049304962158
2025-09-20T02:17:43Z,0.108055400796362,0.15257403029980965,0.2574328084071526,-0.11634493619203568,-0.3907680809497833,-0.9131068587303162,0.06856075298039334,0.0631674616306485,0.1318827572360404,0.9868719159218114,-0.18829603493213654,-0.10195217281579971,-0.2667818069458008,0.005418598651885986,-0.018298745155334473,-0.017042696475982666
2025-09-20T02:17:43Z,0.10685115987460368,0.14838020269246702,0.2520348591929863,-0.11594289541244507,-0.38814979791641235,-0.9142740368843079,0.06673628549279359,0.062133671646540725,0.12908634041890468,0.987432180620095,-0.17811401188373566,-0.11157356202602386,-0.2995927631855011,0.003510318696498871,-0.025262415409088135,-0.0015248656272888184
2025-09-20T02:17:43Z,0.10518734484650813,0.1447011621215046,0.24575755523341147,-0.11576170474290848,-0.386165052652359,-0.9151370525360107,0.06521665761494273,0.06088457062379837,0.12585154849961336,0.9880289112084968,-0.12709440290927887,-0.14797943830490112,-0.3553691506385803,0.003443889319896698,-0.034689128398895264,0.017032146453857422
2025-09-20T02:17:43Z,0.10280780533507071,0.14198104703059092,0.23824600925226871,-0.11596077680587769,-0.3852846324443817,-0.9154828786849976,0.06424436718268708,0.059307040274975714,0.12200425010751839,0.9886709731878554,-0.07540340721607208,-0.1915854811668396,-0.39867347478866577,0.0004962682723999023,-0.026461094617843628,0.015629887580871582
2025-09-20T02:17:43Z,0.10005319246156691,0.13997634835935388,0.23022119744263006,-0.11639184504747391,-0.3851372301578522,-0.9154902100563049,0.06365191565374637,0.05757517356857438,0.11790583027485324,0.9893087725101977,-0.050172533839941025,-0.189598947763443,-0.4028215706348419,0.004728838801383972,-0.008613526821136475,-0.005807816982269287
2025-09-20T02:17:43Z,0.09772375132283018,0.13826283077056625,0.2221607779440388,-0.11642268300056458,-0.3852421045303345,-0.915442168712616,0.06316734857388476,0.05607358427080937,0.11380838256122852,0.9899057595391317,-0.048212066292762756,-0.15854009985923767,-0.4035046398639679,0.011245183646678925,-0.00258597731590271,-0.021290600299835205
2025-09-20T02:17:44Z,0.09582835743315217,0.13668599528750597,0.21406109285206207,-0.11603780835866928,-0.38546088337898254,-0.915398895740509,0.06271651793030758,0.05479738124870755,0.10970670522621775,0.9904686810995904,-0.0422370620071888,-0.15272648632526398,-0.407233864068985,0.007253319025039673,-0.00901082158088684,-0.014771878719329834
2025-09-20T02:17:44Z,0.09324626126214611,0.13535081612045555,0.20560084824449135,-0.11618396639823914,-0.38595205545425415,-0.915173351764679,0.06242190097659525,0.05318604400530296,0.10540834510005893,0.9910417592312167,-0.019793923944234848,-0.2119130790233612,-0.44512230157852173,-0.006133094429969788,-0.027990281581878662,-0.010552585124969482
2025-09-20T02:17:44Z,0.09006552546840335,0.13423865155520184,0.19608710793284326,-0.1165972501039505,-0.38683274388313293,-0.9147488474845886,0.06228249427496795,0.05125897004989965,0.10057192113621599,0.991654445893956,-0.000655272975564003,-0.23515278100967407,-0.4915906488895416,-0.006597980856895447,-0.03916287422180176,-0.025488317012786865
2025-09-20T02:17:44Z,0.08679516218195778,0.13344000249923293,0.18585174784037106,-0.11689439415931702,-0.3881123661994934,-0.9141687154769897,0.062303625856346835,0.04928134971727772,0.09537851748790135,0.9922663281156118,0.009909126907587051,-0.22755587100982666,-0.5148996710777283,-0.003910399973392487,-0.028653591871261597,-0.02906721830368042
2025-09-20T02:17:44Z,0.0835220860348701,0.13275736813548117,0.17539198401207223,-0.11711511015892029,-0.3895120620727539,-0.9135449528694153,0.06236898042830228,0.04730123861301493,0.09007312062421459,0.9928541906823551,0.012294815853238106,-0.24497920274734497,-0.5249441862106323,-0.0027743354439735413,-0.012708485126495361,-0.007936835289001465
2025-09-20T02:17:44Z,0.07996732078855695,0.13201416168813612,0.16456194882165803,-0.11746823787689209,-0.3908982276916504,-0.9129073023796082,0.062405319258045634,0.045167750920965206,0.08457130992140556,0.9934349671244368,-0.0051315464079380035,-0.2579881548881531,-0.5478295087814331,-0.0003923177719116211,-0.005541563034057617,-0.0017377734184265137
2025-09-20T02:17:44Z,0.07614760645088908,0.13073492859598282,0.15331754094695677,-0.11791012436151505,-0.39184731245040894,-0.9124433398246765,0.0621729857888647,0.04287065651171994,0.07884388680531185,0.9940222010300623,-0.03847586363554001,-0.2707759141921997,-0.5600193738937378,-0.004190020263195038,0.003836989402770996,0.0023279190063476562
2025-09-20T02:17:44Z,0.07204640305294321,0.12891929516862569,0.14232714357949658,-0.1186363697052002,-0.392232745885849,-0.9121835827827454,0.06165479595011423,0.04042681366355864,0.07322388821188247,0.9945865730227025,-0.06486690044403076,-0.2667023837566376,-0.5466116666793823,-0.0012373849749565125,0.009566426277160645,0.005544841289520264
2025-09-20T02:17:44Z,0.06835034001706658,0.12678376478525727,0.13109776420439218,-0.11889651417732239,-0.3923396170139313,-0.9121037721633911,0.060942866409622425,0.038173744057540863,0.06749212176166788,0.9951248976389693,-0.0656733363866806,-0.2620543837547302,-0.5755261182785034,0.0025642365217208862,-0.007736295461654663,0.0010278820991516113
2025-09-20T02:17:44Z,0.06463129495587276,0.12468938600765662,0.11986349333213414,-0.11915501952171326,-0.392449289560318,-0.9120228290557861,0.06022850665599942,0.035919179321903395,0.06175773962471599,0.9956245713844156,-0.06647977232933044,-0.25740641355514526,-0.6044406294822693,0.006364218890666962,-0.025036215782165527,-0.003490149974822998
2025-09-20T02:17:44Z,0.06096046727671613,0.12248670053837447,0.1072851202825129,-0.11897221207618713,-0.3926585912704468,-0.9119566082954407,0.05945770939127143,0.03365472330482958,0.0553540332442905,0.9961265263200143,-0.07830211520195007,-0.2668206989765167,-0.6516695618629456,-0.0013650134205818176,-0.028601646423339844,-0.02038729190826416
2025-09-20T02:17:44Z,0.05736905478282622,0.11984095458341848,0.09399987127626253,-0.11848209798336029,-0.39254263043403625,-0.9120703339576721,0.05844882156587836,0.031409889011721245,0.04859465564479442,0.996612040333279,-0.10466465353965759,-0.2565612494945526,-0.6684198379516602,-0.0068908208049833775,-0.02219914272427559,-0.03286346420645714
2025-09-20T02:17:44Z,0.05409432480315565,0.11658769943788601,0.07983548460681505,-0.11741357296705246,-0.39197200536727905,-0.912453830242157,0.057115730966972686,0.02930059708620585,0.04139913095194519,0.997078344317836,-0.11970028281211853,-0.25767847895622253,-0.7078815698623657,-0.0058901309967041016,-0.023946553468704224,-0.02352219820022583
2025-09-20T02:17:44Z,0.05044653957726948,0.11326698224304314,0.06527667237218092,-0.11654162406921387,-0.39134496450424194,-0.9128347039222717,0.055733391505675904,0.027013271279351502,0.03399666922350256,0.9975009652366387,-0.12420123815536499,-0.2817147672176361,-0.7292324900627136,-0.01073341816663742,-0.01945921778678894,-0.013881921768188477
2025-09-20T02:17:44Z,0.04631385635081386,0.10999651026531526,0.05056388371218197,-0.11603853851556778,-0.39072489738464355,-0.9131643176078796,0.054353779374662986,0.024501700376498882,0.026506686324319895,0.9978691055972605,-0.12527278065681458,-0.2959872782230377,-0.7279171347618103,-0.01161196082830429,-0.011831015348434448,-0.014690876007080078
2025-09-20T02:17:44Z,0.0420884410970601,0.10687878857398035,0.036047559422288364,-0.11564970761537552,-0.39014869928359985,-0.9134599566459656,0.05301475682942742,0.021971671806334504,0.019116880777563502,0.9981689126352046,-0.11804348975419998,-0.2835800349712372,-0.7187070250511169,-0.00405806303024292,-0.007963329553604126,-0.01735830307006836
2025-09-20T02:17:44Z,0.03813991726304976,0.10415036981328837,0.02165825779889366,-0.11502256989479065,-0.38984405994415283,-0.9136691689491272,0.051832924496612594,0.019605398300557943,0.011804776540360946,0.9983934585346194,-0.09626993536949158,-0.26612743735313416,-0.7097822427749634,0.0026027709245681763,-0.005949646234512329,-0.009398102760314941
2025-09-20T02:17:44Z,0.034366511541652725,0.1020333983228967,0.007538239830831605,-0.1142951026558876,-0.38999441266059875,-0.9136963486671448,0.050922003831376544,0.017352108812640748,0.004639854911226745,0.9985410871174248,-0.06578613817691803,-0.2575477659702301,-0.6912417411804199,0.001700371503829956,-0.0026727020740509033,-0.004153847694396973
2025-09-20T02:17:44Z,0.030617433101149158,0.10060792025250515,-0.005998684733367638,-0.11369925737380981,-0.3906322419643402,-0.9134981632232666,0.05032248658557299,0.015137888525357114,-0.0022254619907554145,0.9986157854655968,-0.03493036329746246,-0.24996766448020935,-0.6566487550735474,-0.001407817006111145,0.0003872513771057129,-0.007475614547729492
2025-09-20T02:17:44Z,0.0270565051683617,0.09975007298528188,-0.018832392938799687,-0.11312159150838852,-0.3916357457637787,-0.9131401777267456,0.04997481165767166,0.013041030866625367,-0.008729096181575406,0.9986271546152506,-0.013838235288858414,-0.22415027022361755,-0.6197758913040161,0.0009266957640647888,0.002700239419937134,-0.019634008407592773
2025-09-20T02:17:44Z,0.024199058367543578,0.09923792028091803,-0.030754033857726893,-0.11215507239103317,-0.39278310537338257,-0.9127665162086487,0.04977492460930988,0.011320321806532667,-0.014756328582053842,0.9985872283313678,-0.006346563342958689,-0.1829901486635208,-0.5601547360420227,0.0036474764347076416,0.014046519994735718,-0.02204596996307373
2025-09-20T02:17:44Z,0.021703849437987345,0.09891967324243627,-0.041406755018577705,-0.11122237145900726,-0.39389923214912415,-0.9123995900154114,0.04965054570088669,0.009812683916732541,-0.020138975384558295,0.9985153473564413,0.0019748792983591557,-0.17371468245983124,-0.5001142024993896,0.0022101178765296936,0.017421215772628784,-0.015310585498809814
2025-09-20T02:17:44Z,0.01946104882514308,0.09879283620235925,-0.05011977036044849,-0.1106327474117279,-0.39490821957588196,-0.9120350480079651,0.04960201330571194,0.008478273811557472,-0.024545215459444523,0.9984313811546636,0.0021568886004388332,-0.15339848399162292,-0.44047173857688904,0.0037541016936302185,0.017100930213928223,-0.021548807621002197
2025-09-20T02:17:44Z,0.01721726689926026,0.09868543213316532,-0.058832964423585335,-0.11003325134515762,-0.3959120512008667,-0.9116722941398621,0.049552419526214996,0.007143692713198816,-0.02895094213769767,0.9983262621158269,0.0023388981353491545,-0.13308227062225342,-0.3808293044567108,0.005288183689117432,0.016775399446487427,-0.027785181999206543
2025-09-20T02:17:44Z,0.015408773916110917,0.0985174530782073,-0.06608762609848387,-0.10947108268737793,-0.3966588079929352,-0.9114152789115906,0.04946469651844722,0.00606407155963162,-0.03261760492478823,0.9982246434538647,-0.0027514693792909384,-0.11244011670351028,-0.3153194487094879,0.0055001601576805115,0.018906503915786743,-0.02617335319519043
2025-09-20T02:17:44Z,0.013948851702281204,0.09823163112003655,-0.07199626510269516,-0.10899529606103897,-0.3971197307109833,-0.9112716317176819,0.04931377947939761,0.005194503553995693,-0.03560389130045608,0.9981349755149562,-0.009625195525586605,-0.08980338275432587,-0.25551947951316833,0.0073514580726623535,0.01840108633041382,-0.021541714668273926
2025-09-20T02:17:44Z,0.012761536519023673,0.0978657767048304,-0.07666747193800409,-0.1086454838514328,-0.3973493278026581,-0.9112132787704468,0.04912067966013017,0.00449387084390444,-0.037965823309435216,0.9980608728942232,-0.015406125225126743,-0.07432091236114502,-0.1987912505865097,0.006027534604072571,0.016049355268478394,-0.014814913272857666
2025-09-20T02:17:44Z,0.011622315046353169,0.09736493834016942,-0.08017456205368077,-0.10860586911439896,-0.3973115384578705,-0.9112344980239868,0.048855940962482136,0.003849355297094133,-0.039745828592964855,0.9980072583325773,-0.021831143647432327,-0.07222937792539597,-0.15522947907447815,0.003075048327445984,0.009066492319107056,-0.010485947132110596
2025-09-20T02:17:44Z,0.010321445553077659,0.0966960969727769,-0.08294001897487668,-0.10893940925598145,-0.3970297574996948,-0.9113174676895142,0.048500726219594816,0.0031466256666858685,-0.04115993148867639,0.9979696987439359,-0.028962429612874985,-0.07430966198444366,-0.14672520756721497,0.004286862909793854,0.0021577775478363037,-0.01169353723526001
2025-09-20T02:17:44Z,0.009018823807236611,0.09603084161717973,-0.0857061706250099,-0.10927385836839676,-0.3967488408088684,-0.911399781703949,0.048145383824573625,0.002443896267361651,-0.04257392499387974,0.997929566396549,-0.03609371557831764,-0.07638994604349136,-0.13822093605995178,0.0054995715618133545,-0.0047501325607299805,-0.012901902198791504
2025-09-20T02:17:44Z,0.007692620207009299,0.09522551149449264,-0.08834662965320718,-0.10966756939888,-0.3963233530521393,-0.9115376472473145,0.047717645674337006,0.0017364744527536909,-0.043925695574209944,0.9978930352720468,-0.041239749640226364,-0.0769985020160675,-0.12491113692522049,0.004832841455936432,-0.0036807656288146973,-0.012310981750488281
2025-09-20T02:17:44Z,0.00636759465540825,0.09432920999210889,-0.09070376841768717,-0.11014703661203384,-0.39577990770339966,-0.9117159247398376,0.04724258399815833,0.0010395144980224035,-0.04513574022548666,0.997862654128549,-0.04342683404684067,-0.07558568567037582,-0.11161012947559357,0.004930026829242706,-0.003138720989227295,-0.013386785984039307
2025-09-20T02:17:44Z,0.005111681584111099,0.09345732511786775,-0.09267615291299221,-0.11068218946456909,-0.3952125906944275,-0.9118971824645996,0.04677962594121214,0.0003865608194754542,-0.046151520842569134,0.9978384439424794,-0.04063000902533531,-0.06581249833106995,-0.08513112366199493,0.005484767258167267,-0.0009945929050445557,-0.01633584499359131
2025-09-20T02:17:44Z,0.00407892808185954,0.0926895209705353,-0.09404936740368539,-0.11119905114173889,-0.39467015862464905,-0.9120692014694214,0.04637262890491744,-0.00014273959758512252,-0.0468624037232906,0.9978243697284337,-0.03668162599205971,-0.052053097635507584,-0.048158470541238785,0.006404101848602295,0.003937661647796631,-0.017869234085083008
2025-09-20T02:17:44Z,0.0033661540370760867,0.09194944477543929,-0.09460712043214467,-0.11167602986097336,-0.3940591812133789,-0.9122750759124756,0.04598655403274808,-0.0004937710116069559,-0.04715862266724929,0.9978282004884568,-0.03661888465285301,-0.0271503534168005,-0.004319086670875549,0.0078058913350105286,0.005918025970458984,-0.02019554376602173
2025-09-20T02:17:44Z,0.0029829020876896606,0.09117737687688862,-0.09440589859988598,-0.11208683997392654,-0.39333200454711914,-0.912538468837738,0.04559238865154155,-0.0006621327610273174,-0.047068451411676815,0.9978504078598233,-0.038195397704839706,-0.012625925242900848,0.026872681453824043,0.006601773202419281,0.0037041008472442627,-0.018571138381958008
2025-09-20T02:17:44Z,0.0028135053321153587,0.09032038014518205,-0.09363881883257694,-0.11247716844081879,-0.3924623131752014,-0.9128648638725281,0.045161098377762575,-0.000709102688505095,-0.046691105200087575,0.997887714451109,-0.04406034201383591,0.004978856071829796,0.04650339484214783,0.007745265960693359,0.0009129941463470459,-0.01728677749633789
2025-09-20T02:17:44Z,0.002902020768272227,0.08918459214666462,-0.0923039574771306,-0.11280679702758789,-0.3912723660469055,-0.913334846496582,0.044596883701319597,-0.0006085844857062706,-0.04602507392719896,0.9979440719729017,-0.0540783554315567,0.006723995320498943,0.06350952386856079,0.00590023398399353,-5.1647424697875977e-05,-0.014340221881866455
2025-09-20T02:17:44Z,0.002992058908130752,0.08804895556764566,-0.09096913346556831,-0.11313473433256149,-0.3900814354419708,-0.9138035774230957,0.0440326518092744,-0.0005080618695618333,-0.04535900930736929,0.9979996361118577,-0.0640963688492775,0.00846913456916809,0.08051565289497375,0.004053495824337006,-0.001017242670059204,-0.011394917964935303
2025-09-20T02:17:44Z,0.0030020710785659474,0.08669106466486423,-0.08927789344297922,-0.11364509165287018,-0.3886450529098511,-0.9143521189689636,0.0433556689056128,-0.0004355176262123794,-0.04451718408844496,0.9980672208188345,-0.07360631227493286,0.009368350729346275,0.08644575625658035,0.004060983657836914,-0.005178183317184448,-0.011284232139587402
2025-09-20T02:17:44Z,0.0031726893927494803,0.08514241942763956,-0.0876938905791292,-0.11397494375705719,-0.3870450556278229,-0.9149895310401917,0.042586866982097356,-0.0002820701330849679,-0.04372568227220427,0.9981354088079033,-0.07939762622117996,0.014014125801622868,0.07079628109931946,0.00866854190826416,-0.011597365140914917,-0.009127557277679443
2025-09-20T02:17:44Z,0.003327265223971152,0.0835497893637729,-0.08652554964701285,-0.11419103294610977,-0.38545161485671997,-0.9156349897384644,0.04179549947567941,-0.00014558111620261493,-0.043142076098616755,0.9981942892664464,-0.08034776151180267,0.003953323699533939,0.04396654665470123,0.006904877722263336,-0.015677958726882935,-0.0063062310218811035
2025-09-20T02:17:44Z,0.0032536297857279073,0.08195564710223664,-0.08582219058353407,-0.11447285860776901,-0.38390985131263733,-0.9162473678588867,0.040998319202845517,-0.0001334172197421814,-0.04279527550298315,0.9982423013202023,-0.07860752940177917,-0.0059064337983727455,0.02494552917778492,0.003884047269821167,-0.01523628830909729,-0.009013175964355469
2025-09-20T02:17:44Z,0.0030402301216953054,0.08047577454397951,-0.08539614725979615,-0.11479770392179489,-0.3825041651725769,-0.91679447889328,0.040255153267619144,-0.0001995931397784835,-0.04258940661702886,0.9982813398155367,-0.06978011876344681,-0.013240091502666473,0.016807517036795616,0.0022200942039489746,-0.014118462800979614,-0.012637078762054443
2025-09-20T02:17:44Z,0.002728637756506971,0.07921121032927429,-0.08510203628189068,-0.11517249792814255,-0.38131046295166016,-0.9172446131706238,0.03961736538324364,-0.0003222937621658162,-0.042450809634141815,0.9983127130300776,-0.05651719123125076,-0.017378605902194977,0.014974741265177727,0.002219565212726593,-0.011506766080856323,-0.014077901840209961
2025-09-20T02:17:44Z,0.002350686612674077,0.07827867626138264,-0.08474076638926205,-0.11562942713499069,-0.3804128170013428,-0.9175597429275513,0.0391439479060586,-0.00048403940379206523,-0.042279289307122825,0.9983385999863832,-0.03810717537999153,-0.020664528012275696,0.020118391141295433,0.0030669942498207092,-0.008285820484161377,-0.012939095497131348
2025-09-20T02:17:44Z,0.0019218851215539315,0.0777336610825861,-0.08421756386386278,-0.1161833256483078,-0.3798513114452362,-0.9177224040031433,0.03886300692565071,-0.000676373311056318,-0.04202722341303296,0.9983600617234024,-0.019690854474902153,-0.017532452940940857,0.03250822424888611,0.003410443663597107,-0.0066616833209991455,-0.013945341110229492
2025-09-20T02:17:44Z,0.0015393622591796958,0.0775108620372529,-0.08338471425366503,-0.11679023504257202,-0.3795488476753235,-0.917770504951477,0.038744108202489705,-0.0008464979698086807,-0.04161917707515722,0.9983816183456278,-0.005676629953086376,-0.01578914001584053,0.046128757297992706,0.001387953758239746,-0.004416674375534058,-0.015452742576599121
2025-09-20T02:17:44Z,0.001144956113535301,0.0774829015621832,-0.08217022094790528,-0.1175253763794899,-0.37937983870506287,-0.9177465438842773,0.03872256772915926,-0.0010192852839938358,-0.041020574596732355,0.9984070871106089,0.0013345954939723015,-0.009015653282403946,0.07577676326036453,-0.0011175945401191711,-0.0001513063907623291,-0.01658797264099121
2025-09-20T02:17:44Z,0.0010044403481820187,0.0775490685369026,-0.08033886154582044,-0.11821676045656204,-0.3792235255241394,-0.9177223443984985,0.03875369950106072,-0.0010553042699113465,-0.040108989394839596,0.9984428628133256,0.00398031622171402,0.006879700347781181,0.10202478617429733,0.0013537481427192688,0.001322239637374878,-0.016771972179412842
2025-09-20T02:17:45Z,0.0012605422966450676,0.07762088883447188,-0.07816650372253986,-0.11864836513996124,-0.379030704498291,-0.9177463054656982,0.03879567398689467,-0.0008867558936395876,-0.03901943686326256,0.998484606386366,0.0015780297107994556,0.041562967002391815,0.11522358655929565,0.010272160172462463,-0.0004706382751464844,-0.01835101842880249
2025-09-20T02:17:45Z,0.0020552097320672017,0.07763500695272965,-0.07564061405712014,-0.11869338899850845,-0.37874099612236023,-0.9178600907325745,0.03881881069259139,-0.0004412743878539271,-0.03774293859848906,0.9985330849327304,0.0007362086907960474,0.05265870690345764,0.13219556212425232,0.007984846830368042,0.0022725164890289307,-0.014092862606048584
2025-09-20T02:17:45Z,0.0029627133604057192,0.07754478514009086,-0.07263123078128514,-0.11878181993961334,-0.37829503417015076,-0.9180325269699097,0.038790823850815025,7.188715797083049e-05,-0.036222924172240385,0.9985905613196194,-0.007514378055930138,0.060309190303087234,0.16707517206668854,0.004615627229213715,0.009228825569152832,-0.014258146286010742
2025-09-20T02:17:45Z,0.004072825102739427,0.0773350686457687,-0.06881608811499654,-0.1189289391040802,-0.37763816118240356,-0.9182838797569275,0.038704943037022405,0.0007038068539450974,-0.03429679463965567,0.9986616152022022,-0.016148939728736877,0.07550995796918869,0.21222718060016632,0.0027672424912452698,0.012567341327667236,-0.015191793441772461
2025-09-20T02:17:45Z,0.005384304830317466,0.07702318592536954,-0.06415268283313999,-0.11914744973182678,-0.376778244972229,-0.9186087250709534,0.03856840631765334,0.0014539796956657804,-0.03194334669483005,0.9987441566095483,-0.014612545259296894,0.08825398236513138,0.25056925415992737,0.005523465573787689,0.009532570838928223,-0.009942770004272461
2025-09-20T02:17:45Z,0.006828213160955802,0.07687696168976721,-0.05881234144800437,-0.11944735050201416,-0.375978946685791,-0.918897271156311,0.03851248736619859,0.002280222373209526,-0.029248901348231524,0.9988272980356352,-0.0033231982961297035,0.09273923188447952,0.2801767587661743,0.0072249844670295715,0.004919648170471191,-0.0050997138023376465
2025-09-20T02:17:45Z,0.008273419920902894,0.07697076508535267,-0.052876063877705035,-0.11992351710796356,-0.3753156065940857,-0.9191063642501831,0.03857138363632899,0.003115091167178752,-0.026256046511131913,0.998905899776421,0.009185665287077427,0.0954972505569458,0.303170382976532,0.005560770630836487,-0.00025400519371032715,-0.009097635746002197
2025-09-20T02:17:45Z,0.009747804640571008,0.07720281037606917,-0.046548412049818196,-0.12048699706792831,-0.3747180998325348,-0.9192764759063721,0.038694250803114734,0.003970831070099461,-0.023066451495472713,0.9989769272990793,0.013292007148265839,0.10178576409816742,0.3219476342201233,0.0038085132837295532,-0.004726201295852661,-0.017901599407196045
2025-09-20T02:17:45Z,0.011262358478668077,0.07752599139968498,-0.03992372789152759,-0.1210981160402298,-0.3741532266139984,-0.9194262623786926,0.03885727097298356,0.00485227416945635,-0.01972704611909818,0.9990382244002819,0.013461003080010414,0.1016785055398941,0.3347238004207611,-0.00018104910850524902,-0.008993983268737793,-0.02182459831237793
2025-09-20T02:17:45Z,0.012775370362577358,0.07789358893104545,-0.033155278270530254,-0.1217481717467308,-0.37359678745269775,-0.9195666313171387,0.03903661118898234,0.005736480762014024,-0.016315289892213633,0.9990881175666103,0.01746300235390663,0.09535425156354904,0.33548346161842346,-0.001335836946964264,-0.012815505266189575,-0.01955258846282959
2025-09-20T02:17:45Z,0.01405025308876492,0.07834534604142102,-0.02653586123609001,-0.12256667762994766,-0.37312403321266174,-0.9196498990058899,0.03925137377520411,0.0064994819827608975,-0.012981939172167056,0.9991239496846762,0.018648521974682808,0.07891042530536652,0.32367318868637085,-0.0025026053190231323,-0.017281919717788696,-0.01601123809814453
2025-09-20T02:17:45Z,0.015007304694341327,0.07885067288854297,-0.020165469720393837,-0.12359731644392014,-0.3727213442325592,-0.9196752309799194,0.03948760723640538,0.007099975631244622,-0.009778705883264866,0.9991469841205982,0.02080577425658703,0.06461770087480545,0.3131430447101593,-0.0054496824741363525,-0.01673257350921631,-0.014299392700195312
2025-09-20T02:17:45Z,0.01563305886307382,0.07939313994501232,-0.014004850434017259,-0.12486480176448822,-0.37236976623535156,-0.9196464419364929,0.039738648797318435,0.007532211753473435,-0.006686440363393658,0.9991593816759851,0.02184765599668026,0.05167756602168083,0.30117541551589966,-0.006534852087497711,-0.01536470651626587,-0.013805150985717773
2025-09-20T02:17:45Z,0.01619128939257974,0.07998324605453938,-0.008063583247950474,-0.12612420320510864,-0.37208136916160583,-0.9195913076400757,0.04001194138259435,0.007927828294522392,-0.003704759466424671,0.9991609033142534,0.026550590991973877,0.05552740395069122,0.28695571422576904,-0.0021540969610214233,-0.013594180345535278,-0.01244431734085083
2025-09-20T02:17:45Z,0.01693251602128675,0.08073210295140232,-0.0024823020519234218,-0.12710468471050262,-0.37197932600975037,-0.9194976091384888,0.04036411082579239,0.008409168633633961,-0.0008984429558121172,0.9991492767395331,0.035946574062108994,0.06557458639144897,0.26474761962890625,0.004133395850658417,-0.012040853500366211,-0.008914649486541748
2025-09-20T02:17:45Z,0.017951831892695825,0.08166784154238219,0.0026580589101022397,-0.12769605219364166,-0.37210264801979065,-0.9193657040596008,0.04080897374138873,0.009022557467078245,0.001694282425705096,0.9991248045126189,0.046074479818344116,0.07669723033905029,0.246274933218956,0.007098458707332611,-0.009114235639572144,-0.006447851657867432
2025-09-20T02:17:45Z,0.019207557053365503,0.0827487633735876,0.007476324872181793,-0.12797266244888306,-0.3723978102207184,-0.919207751750946,0.04132451305089497,0.009749957714170985,0.004132010583859895,0.9990896526187214,0.05212032422423363,0.0840674564242363,0.2343825399875641,0.005358316004276276,-0.0057191550731658936,-0.0070302486419677734
2025-09-20T02:17:45Z,0.02046759180668349,0.08393855354122624,0.012204158514568283,-0.12821674346923828,-0.3727988600730896,-0.9190111756324768,0.0418915868269461,0.010480424812550099,0.0065257120702215485,0.9990459034180181,0.05605554208159447,0.08271237462759018,0.24109354615211487,0.0002550482749938965,0.0018468201160430908,-0.00852423906326294
2025-09-20T02:17:45Z,0.02186440898212497,0.08521042700992128,0.017268196456852066,-0.12843190133571625,-0.3732183575630188,-0.9188108444213867,0.04249389068245342,0.011289378778353358,0.009091241629314328,0.998991595227077,0.0605957992374897,0.10170301049947739,0.2674700617790222,0.002498447895050049,0.0073288679122924805,-0.015667498111724854
2025-09-20T02:17:45Z,0.023725717151339473,0.08659862026237046,0.02289660717709507,-0.1283835768699646,-0.37365201115608215,-0.9186412692070007,0.043144222676555335,0.01234618814455939,0.011949966060410723,0.9989211064568323,0.06618557870388031,0.12969009578227997,0.29273778200149536,0.006072238087654114,0.0061833858489990234,-0.021744847297668457
2025-09-20T02:17:45Z,0.026092339108161,0.08814024726622072,0.029009772151566426,-0.1280103325843811,-0.37414297461509705,-0.9184935688972473,0.04385843720636899,0.013670709707877088,0.015063744359010511,0.9988306748426046,0.07359402626752853,0.1618392914533615,0.31315696239471436,0.006329447031021118,0.0009728372097015381,-0.02618640661239624
2025-09-20T02:17:45Z,0.028908360343885855,0.08984975469044369,0.03550374120135579,-0.12733253836631775,-0.3747175633907318,-0.9183534979820251,0.044641692547313774,0.015233925710481913,0.018380184663929988,0.9987178031782608,0.07996027916669846,0.17938993871212006,0.32893088459968567,0.0033226385712623596,-0.003835737705230713,-0.024828433990478516
2025-09-20T02:17:45Z,0.03203169606200747,0.09165466720530613,0.04215297217643152,-0.12641392648220062,-0.3753422498703003,-0.9182252883911133,0.04545808149159252,0.016960141624659884,0.021783611574189548,0.9985847013043122,0.08552489429712296,0.18904012441635132,0.3392946720123291,-0.00038316845893859863,-0.007673531770706177,-0.022979378700256348
2025-09-20T02:17:45Z,0.035239082629543186,0.09357946794468466,0.04908250805537432,-0.12549562752246857,-0.3760187029838562,-0.9180744886398315,0.04631945554340691,0.01874161457012808,0.025331952473416654,0.9984295175247824,0.09025059640407562,0.19808317720890045,0.35030630230903625,-0.000735059380531311,-0.011149346828460693,-0.021770179271697998
2025-09-20T02:17:45Z,0.038619529408934025,0.09572693011073051,0.05620987755401402,-0.12447312474250793,-0.3768520653247833,-0.9178719520568848,0.04727540904893961,0.0206230944698791,0.028987281569664524,0.9982481676994513,0.09777744859457016,0.20562517642974854,0.36177244782447815,0.0010270848870277405,-0.012027770280838013,-0.017826735973358154
2025-09-20T02:17:45Z,0.042081846282545,0.09805922866256132,0.06354507630316307,-0.12343241274356842,-0.37780460715293884,-0.9176208972930908,0.04830683702336081,0.02256004676442941,0.03275261390045126,0.9980404350368628,0.10481518507003784,0.2058674693107605,0.37199029326438904,0.0006755217909812927,-0.011250853538513184,-0.013591408729553223
2025-09-20T02:17:45Z,0.045415026263811484,0.10054259814383618,0.07108276783445718,-0.12256477028131485,-0.37884482741355896,-0.9173082709312439,0.049399650637693256,0.024447679843627834,0.03662009980496101,0.9978080321730334,0.10787221044301987,0.20478253066539764,0.3837243318557739,-0.00012727826833724976,-0.008576363325119019,-0.010253965854644775
2025-09-20T02:17:45Z,0.04872283754218266,0.10305847295353933,0.07889458301700945,-0.12179262191057205,-0.37985146045684814,-0.9169948101043701,0.050491722710898225,0.026338411671996406,0.0406266989173892,0.9975501671040722,0.10797315090894699,0.20755071938037872,0.4022715389728546,-6.0327351093292236e-05,-0.0038173794746398926,-0.004559338092803955
2025-09-20T02:17:45Z,0.05182860110748467,0.10570189313305786,0.08716822638657862,-0.1213313415646553,-0.3808775842189789,-0.916630208492279,0.051631071189793355,0.028151537905095742,0.04486237796341218,0.9972607406241796,0.11633344739675522,0.18840472400188446,0.4328536093235016,-0.0036976709961891174,0.001554340124130249,0.004135191440582275
2025-09-20T02:17:45Z,0.054548950022789186,0.10874768032825982,0.09609693631320179,-0.12140670418739319,-0.38213664293289185,-0.9160960912704468,0.05295624728172382,0.029808681298216996,0.049421557472750094,0.9969275280371737,0.13889756798744202,0.17986582219600677,0.46757063269615173,-0.002852529287338257,0.0017071366310119629,0.0006719231605529785
2025-09-20T02:17:45Z,0.05720944173251338,0.11236336257769168,0.10590086662083523,-0.12178277224302292,-0.38373658061027527,-0.9153770804405212,0.05453916356073739,0.03148634807927299,0.05442431928407317,0.9965299932675372,0.1678103804588318,0.20033319294452667,0.5279378294944763,0.0005271732807159424,0.008208513259887695,-0.011117875576019287
2025-09-20T02:17:45Z,0.06032653571047897,0.11662393944282738,0.11715519262563683,-0.12214430421590805,-0.3856354355812073,-0.9145305156707764,0.056389894645381654,0.0334661315630793,0.06017261516060594,0.9960318311365517,0.19358038902282715,0.2491687834262848,0.6159018874168396,0.005456030368804932,0.015709400177001953,-0.023277580738067627
2025-09-20T02:17:45Z,0.06447856384047794,0.1215460762595549,0.13024546004470694,-0.1220625713467598,-0.3877635896205902,-0.9136411547660828,0.0584816080304177,0.03605641121218416,0.06687640065227723,0.9953930763778671,0.21596339344978333,0.32491451501846313,0.7035953402519226,0.011228866875171661,0.013470292091369629,-0.035724639892578125
2025-09-20T02:17:45Z,0.06991511138644863,0.1270594181269521,0.14478719615264532,-0.12119504064321518,-0.39010605216026306,-0.912759006023407,0.06075912948840495,0.03937780225102008,0.0743534517960179,0.9946000493389588,0.237776979804039,0.3965757489204407,0.7684890031814575,0.01199910044670105,0.006304293870925903,-0.038620591163635254
2025-09-20T02:17:45Z,0.07626888826969852,0.13311169758110689,0.16036357197670048,-0.1197570189833641,-0.39267483353614807,-0.9118468761444092,0.06319793811118629,0.04324161494655309,0.08238789416451921,0.993654091791708,0.25242292881011963,0.4430353343486786,0.8110356330871582,0.0083976611495018,0.000980466604232788,-0.03383791446685791
2025-09-20T02:17:45Z,0.08323640582423081,0.13944517327275852,0.17668718485184692,-0.11793576180934906,-0.395278662443161,-0.9109588265419006,0.06567239784774864,0.047484471305485845,0.09082538408994813,0.9925639117593763,0.2544017434120178,0.4733204245567322,0.8455893993377686,0.003928609192371368,-4.291534423828125e-05,-0.02731877565383911
2025-09-20T02:17:45Z,0.09059413818199002,0.14591188737495767,0.19344226672538298,-0.11584170907735825,-0.3978368639945984,-0.910113513469696,0.06811491078393216,0.051981963156290376,0.09949991849594517,0.9913415704730807,0.24872668087482452,0.4946579933166504,0.859661877155304,0.0012156367301940918,-0.005067259073257446,-0.018662214279174805
2025-09-20T02:17:45Z,0.09794222814883119,0.15234588708194585,0.21019160404506707,-0.11371545493602753,-0.4002833664417267,-0.9093085527420044,0.07046844951221164,0.05651371928352344,0.10817747516594424,0.9900192390302828,0.23749122023582458,0.4855324327945709,0.8391342759132385,-0.002598695456981659,-0.014896154403686523,-0.006435573101043701
2025-09-20T02:17:45Z,0.10496383615180715,0.15853361067574237,0.22620076566578443,-0.11164870113134384,-0.4025789797306061,-0.9085509181022644,0.0726678146250592,0.06088334381329611,0.11647740322912985,0.9886585241359692,0.22142092883586884,0.4579213559627533,0.7895475029945374,-0.005417928099632263,-0.024720370769500732,0.0017154216766357422
2025-09-20T02:17:45Z,0.11140765619498717,0.16434536027511418,0.241125342685013,-0.10978209972381592,-0.4046909511089325,-0.907839834690094,0.07468454877921282,0.06494092904790186,0.12421571103667169,0.9873071623037155,0.19767066836357117,0.4233631193637848,0.7345672249794006,-0.005549795925617218,-0.02800777554512024,0.00602567195892334
2025-09-20T02:17:45Z,0.11724307869524876,0.16960106490829696,0.2549809744695912,-0.10814481228590012,-0.4064706265926361,-0.9072410464286804,0.07644479328230991,0.06865423753252675,0.13139296464597527,0.9859911786203234,0.16832518577575684,0.3899410665035248,0.6790710091590881,-0.004679001867771149,-0.029110997915267944,0.006956934928894043
2025-09-20T02:17:45Z,0.12243045373504759,0.17422872761546906,0.2676667135470461,-0.10674955695867538,-0.4078897535800934,-0.9067692160606384,0.0779325492208669,0.07198762405671358,0.13795428752370198,0.9847399594777647,0.1416858434677124,0.34122827649116516,0.6098843216896057,-0.005352534353733063,-0.034376561641693115,0.010237455368041992
2025-09-20T02:17:45Z,0.12672175799008417,0.1783124358061218,0.2789278838303225,-0.1057700589299202,-0.4090914726257324,-0.9063425660133362,0.07922962990914333,0.07480722858522947,0.14376534335471122,0.9835944347567477,0.12008450925350189,0.28441986441612244,0.5367448925971985,-0.004453741014003754,-0.03912383317947388,0.010333240032196045
2025-09-20T02:17:45Z,0.13016018136884921,0.18177995957841578,0.288717453590215,-0.10515978932380676,-0.4100356101989746,-0.9059869050979614,0.08031358410556563,0.07712165578060345,0.1488022002220323,0.9825781561607926,0.09881702065467834,0.23394669592380524,0.46148958802223206,-0.0024374648928642273,-0.04080727696418762,0.00717240571975708
2025-09-20T02:17:45Z,0.13282497234154647,0.1847316836558827,0.29705324147271284,-0.1048637256026268,-0.4108189046382904,-0.9056662917137146,0.08123927537162803,0.07897214026273386,0.15307914148236565,0.9816976668852777,0.08011689782142639,0.1897631287574768,0.3869539797306061,-0.0024992451071739197,-0.04213041067123413,0.004687070846557617
2025-09-20T02:17:45Z,0.13479595863043384,0.1871648558027814,0.30397910599820394,-0.10482624173164368,-0.4114389419555664,-0.905389130115509,0.0820068689949827,0.08039535192203194,0.1566210670656887,0.9809593173811315,0.06727224588394165,0.14254751801490784,0.3174038231372833,-0.0030668526887893677,-0.040790289640426636,0.006378471851348877
2025-09-20T02:17:45Z,0.13623973255703384,0.18930760662363258,0.3095745628164957,-0.10493320971727371,-0.4120870530605316,-0.9050819277763367,0.08271905379823516,0.08148956312401744,0.15948015442971167,0.9803483772029452,0.06109577417373657,0.10266853123903275,0.25639963150024414,-0.0003973916172981262,-0.038178443908691406,0.006380438804626465
2025-09-20T02:17:45Z,0.13712600205815176,0.19113819482857583,0.31405933835831074,-0.10526594519615173,-0.41270044445991516,-0.9047637581825256,0.08336321928706557,0.08224536959980328,0.16176270884008107,0.9798566945361465,0.05151854082942009,0.0698380172252655,0.20217566192150116,7.634609937667847e-05,-0.034927189350128174,0.00579601526260376
2025-09-20T02:17:45Z,0.1375796558894224,0.1926738140499458,0.31749702403489455,-0.105729840695858,-0.41328367590904236,-0.9044433832168579,0.08393833355191344,0.08272626624863604,0.1635058281407569,0.9794777497034111,0.041297826915979385,0.04140271246433258,0.1527932584285736,0.0012018755078315735,-0.031931132078170776,0.0033652782440185547
2025-09-20T02:17:45Z,0.1376682167342735,0.1938003387036012,0.32005727353651636,-0.10629814863204956,-0.41370081901550293,-0.9041860103607178,0.08437782754612899,0.08296244958220797,0.16479269403702398,0.9792042800641808,0.028962858021259308,0.022221725434064865,0.10753445327281952,0.0031378939747810364,-0.029128581285476685,0.00030809640884399414
2025-09-20T02:17:46Z,0.13758197539974976,0.19460293322057792,0.3217002210352988,-0.10679591447114944,-0.4140377342700958,-0.9039731025695801,0.08471053496483698,0.08305069418431484,0.1656142760260903,0.9790294509796825,0.016695812344551086,0.0044682081788778305,0.0634576678276062,0.004728183150291443,-0.028010129928588867,-0.0015884637832641602
2025-09-20T02:17:46Z,0.1373561780249948,0.19503632488005807,0.3225825083429045,-0.10722530633211136,-0.4142204523086548,-0.903838574886322,0.08490523580749039,0.08301065930518835,0.16604782550718625,0.978942527804336,0.005746825598180294,-0.010159280151128769,0.028680264949798584,0.004133246839046478,-0.02491515874862671,-0.002739429473876953
2025-09-20T02:17:46Z,0.13691297753030068,0.1952186999106726,0.32286661281051,-0.10770077258348465,-0.41431695222854614,-0.9037377834320068,0.08501973118923635,0.08281974463107271,0.16617277511629047,0.9789275350358478,0.0013001412153244019,-0.0239478200674057,0.005535801872611046,0.003332853317260742,-0.022232145071029663,-0.004627585411071777
2025-09-20T02:17:46Z,0.13639905383252907,0.1952709554985734,0.3228050734678526,-0.10815415531396866,-0.414376825094223,-0.9036561846733093,0.08509060510679661,0.08256957989467978,0.16612214865870134,0.9789510595542873,0.00014803209342062473,-0.0312945581972599,-0.00738148670643568,0.004051774740219116,-0.019978374242782593,-0.006336033344268799
2025-09-20T02:17:46Z,0.13576229113501953,0.19532488463824893,0.32256548724343653,-0.10867807269096375,-0.4144783616065979,-0.9035467505455017,0.08517979984861188,0.08225181938649588,0.1659791486824874,0.9789943063127271,0.0027557178400456905,-0.034674059599637985,-0.015225975774228573,0.004938945174217224,-0.018210917711257935,-0.008540153503417969
2025-09-20T02:17:46Z,0.13511547731183662,0.1954130307961178,0.3221944158702081,-0.10918296873569489,-0.4146397113800049,-0.903411865234375,0.08529191448374152,0.08192611400510608,0.1657721723307588,0.9790469738868753,0.00565092358738184,-0.03724118322134018,-0.017140677198767662,0.004459552466869354,-0.015709370374679565,-0.00969851016998291
2025-09-20T02:17:46Z,0.1343855525119064,0.19558005800515854,0.3218913009967879,-0.10978260636329651,-0.41485506296157837,-0.9032403230667114,0.08544671644578425,0.0815686098176597,0.1655968565273794,0.9790929546050129,0.006737948395311832,-0.036413807421922684,-0.008678184822201729,0.0030905231833457947,-0.011221975088119507,-0.01048576831817627
2025-09-20T02:17:46Z,0.13367132543246116,0.1957712760416079,0.3218349367687603,-0.1104254424571991,-0.415036141872406,-0.9030787348747253,0.08560194793229381,0.08123114049559595,0.16554351318272398,0.9791164985847991,0.009825562126934528,-0.034702084958553314,0.006668416783213615,0.0019163638353347778,-0.008869737386703491,-0.010570406913757324
2025-09-20T02:17:46Z,0.13289479210804267,0.19606578669799246,0.32202379532350095,-0.11118591576814651,-0.41525283455848694,-0.9028857946395874,0.08580306680733868,0.0808815591649979,0.16561001766295153,0.9791166309031263,0.015082774683833122,-0.03548617660999298,0.015110325068235397,0.0013296529650688171,-0.00999152660369873,-0.009402871131896973
2025-09-20T02:17:46Z,0.13209732084866724,0.1965351200456547,0.3223251115821956,-0.1120002344250679,-0.41559794545173645,-0.9026263356208801,0.08608721892721909,0.08053997516540781,0.165734838745982,0.9790987239869328,0.022551994770765305,-0.03588365018367767,0.021097321063280106,0.0008613541722297668,-0.012058049440383911,-0.009014010429382324
2025-09-20T02:17:46Z,0.13143491669768592,0.19709056059472235,0.32252761830492244,-0.11267450451850891,-0.41604098677635193,-0.9023382663726807,0.0864064759717308,0.08026693063204725,0.16581900732652305,0.9790787219672922,0.02171502821147442,-0.03131440654397011,0.01170989777892828,0.0008280202746391296,-0.014098495244979858,-0.009980499744415283
2025-09-20T02:17:46Z,0.13077233319178538,0.1976458902590367,0.32273051411154585,-0.11334870010614395,-0.41648370027542114,-0.9020495414733887,0.08672572689003628,0.07999387675839928,0.16590314186205468,0.9790585404949667,0.020878059789538383,-0.026745161041617393,0.0023224754258990288,0.0007946193218231201,-0.01613926887512207,-0.010947644710540771
2025-09-20T02:17:46Z,0.13026038501317808,0.19802917455177615,0.3226650212851394,-0.11381631344556808,-0.41683557629585266,-0.9018281102180481,0.08695883036569362,0.07976977294096906,0.16585809390349168,0.9790637728434662,0.011350058950483799,-0.024636581540107727,-0.0111960768699646,4.608184099197388e-05,-0.01570853590965271,-0.010274708271026611
2025-09-20T02:17:46Z,0.12982790020312585,0.19810235619653926,0.32225409084454526,-0.11411666125059128,-0.4169926345348358,-0.9017175436019897,0.08704693396469153,0.07954576637542927,0.16563984986009997,0.9791112194942208,-0.0016143377870321274,-0.02753388322889805,-0.029001573100686073,-0.0004877746105194092,-0.01685929298400879,-0.007957279682159424
2025-09-20T02:17:46Z,0.1293155854752306,0.19783034921568968,0.3213743933216917,-0.11436334252357483,-0.41695162653923035,-0.901705265045166,0.08699077716611489,0.07923589386540852,0.1651803773866232,0.979218938405113,-0.013759104534983635,-0.04038534685969353,-0.05999227613210678,-0.002414099872112274,-0.02183246612548828,-0.0037620067596435547
2025-09-20T02:17:46Z,0.12861479068164086,0.19723745610197055,0.31977383223899075,-0.11459790915250778,-0.41679033637046814,-0.9017500281333923,0.0868208224693242,0.07877806943461625,0.1643520884109336,0.979410318317961,-0.025375954806804657,-0.06454072147607803,-0.1007440909743309,-0.003592155873775482,-0.027216821908950806,-0.0005090236663818359
2025-09-20T02:17:46Z,0.1276205309101446,0.19632280637974292,0.31738519793102044,-0.11489894241094589,-0.41652220487594604,-0.9018356204032898,0.08654702664176946,0.07811837636300847,0.1631174466780663,0.9796937432183721,-0.03576815500855446,-0.08386204391717911,-0.13987842202186584,-0.003959685564041138,-0.02860504388809204,0.0008680820465087891
2025-09-20T02:17:46Z,0.12632141299567035,0.1950696817509876,0.31424612723876455,-0.11528346687555313,-0.41612255573272705,-0.9019710421562195,0.0861592075288081,0.07725232946957505,0.1614939397162736,0.9800654763351425,-0.04753889515995979,-0.1077529788017273,-0.1756051480770111,-0.0048511698842048645,-0.02788597345352173,0.0025110244750976562
2025-09-20T02:17:46Z,0.12482234984770234,0.1935243298946527,0.31043855039963336,-0.11567695438861847,-0.41561195254325867,-0.9021560549736023,0.0856667167097511,0.0762392828250669,0.1595272572615966,0.9805099394471886,-0.0612480565905571,-0.11754923313856125,-0.20923516154289246,-0.0033713355660438538,-0.029627174139022827,-0.0018835663795471191
2025-09-20T02:17:46Z,0.12333133300578657,0.19168626471823336,0.30589649293522214,-0.11587503552436829,-0.4150025546550751,-0.9024111032485962,0.08505367460100047,0.07517954475264314,0.15719376280385022,0.9810218929947742,-0.06968189030885696,-0.11851362138986588,-0.2521609961986542,0.0005620718002319336,-0.03437468409538269,-0.006584346294403076
2025-09-20T02:17:46Z,0.12184869340818356,0.18958835621737585,0.30047000871907725,-0.11584198474884033,-0.41435375809669495,-0.9027134776115417,0.08434044853806222,0.07407092439546407,0.15442024054874576,0.9816081488382067,-0.07744742184877396,-0.12812049686908722,-0.3003861904144287,0.0010476857423782349,-0.035830557346343994,-0.006656765937805176
2025-09-20T02:17:46Z,0.12037721620192122,0.18721954693132098,0.2941250298569589,-0.11556355655193329,-0.41365954279899597,-0.9030674695968628,0.08352101496882329,0.07291455446764906,0.15118919042827655,0.9822675581714087,-0.09098745137453079,-0.13655760884284973,-0.3447537124156952,0.0013779401779174805,-0.03142419457435608,-0.006559550762176514
2025-09-20T02:17:46Z,0.1188532226638848,0.18440444132615855,0.2869008637259741,-0.11509420722723007,-0.41275179386138916,-0.9035426378250122,0.08251057682248503,0.07167115923550499,0.1475125579870562,0.9830031428230296,-0.11107079684734344,-0.1532200276851654,-0.3864121735095978,-0.0010941177606582642,-0.02688443660736084,-0.004676103591918945
2025-09-20T02:17:46Z,0.11706474295394405,0.1810932939449951,0.27892026063856123,-0.11464899033308029,-0.4115545451641083,-0.9041451215744019,0.08129318604507506,0.07024172457088143,0.14344027322067662,0.9838100831160346,-0.13352839648723602,-0.17423099279403687,-0.4243096709251404,-0.002230897545814514,-0.02263006567955017,-0.002186596393585205
2025-09-20T02:17:46Z,0.1149891370689504,0.1772850535125211,0.2703586037642702,-0.1142880991101265,-0.41002362966537476,-0.9048861265182495,0.07986018233689815,0.06862594875832406,0.13905763206079683,0.9846703667295316,-0.1573885679244995,-0.18746422231197357,-0.4502306878566742,-0.001850523054599762,-0.0184364914894104,-0.0026306509971618652
2025-09-20T02:17:46Z,0.11269846338829742,0.1729740257020875,0.2614332907767609,-0.11399758607149124,-0.408102422952652,-0.9057908058166504,0.07819287992387251,0.06687144149019332,0.13447474240085763,0.9855610344180672,-0.17542019486427307,-0.1949145793914795,-0.4745669662952423,4.979968070983887e-05,-0.019067436456680298,-0.0036133527755737305
2025-09-20T02:17:46Z,0.11031257250406082,0.16830410764122455,0.2519014961613942,-0.11361564695835114,-0.40596523880958557,-0.9067986011505127,0.07635954660392658,0.06504058337677293,0.12958011299942104,0.9864826031446707,-0.1936875283718109,-0.20497167110443115,-0.5087526440620422,-0.00013584643602371216,-0.024280250072479248,-0.003505110740661621
2025-09-20T02:17:46Z,0.1077640635407623,0.16317701670766363,0.24154197455277707,-0.11314186453819275,-0.403564453125,-0.9079287648200989,0.07432012319734643,0.06309026993182168,0.12425976524264955,0.9874490535144299,-0.21037957072257996,-0.22393620014190674,-0.5604807138442993,-0.000659555196762085,-0.03100067377090454,-0.0023669004440307617
2025-09-20T02:17:46Z,0.10478798394508669,0.15764925922242348,0.23019170213914122,-0.11277506500482559,-0.4009752869606018,-0.9091207981109619,0.0721191066368777,0.06089258520164606,0.11842470118222105,0.988466769490772,-0.22684884071350098,-0.2545718550682068,-0.6097975373268127,-0.0032385215163230896,-0.032488852739334106,-0.001751720905303955
2025-09-20T02:17:46Z,0.10145162963565706,0.15178403196431914,0.2179592117834551,-0.11247983574867249,-0.3982216715812683,-0.9103668332099915,0.06977354467912755,0.05849397563758066,0.11213298264901216,0.9895131862462224,-0.23879164457321167,-0.27161896228790283,-0.6468194127082825,-0.00219079852104187,-0.028847485780715942,-0.0060672760009765625
2025-09-20T02:17:46Z,0.09783943674117161,0.145704698842087,0.20510092080072032,-0.11224586516618729,-0.3953530192375183,-0.9116451740264893,0.06732621891654025,0.05595671397937334,0.10551775881119223,0.9905564688526166,-0.24338793754577637,-0.2775971293449402,-0.6736516356468201,-0.00136469304561615,-0.02533167600631714,-0.008040249347686768
2025-09-20T02:17:46Z,0.09385443003027702,0.13967475728036624,0.19137976081815375,-0.11210707575082779,-0.3926445543766022,-0.9128320217132568,0.0649138809716445,0.05324133401097302,0.09846451524211938,0.9915928651178229,-0.23675088584423065,-0.2861020863056183,-0.6806021928787231,-0.0013191476464271545,-0.019881993532180786,-0.008506834506988525
2025-09-20T02:17:46Z,0.08978961032306461,0.1336995153283693,0.1776457799484132,-0.11201351881027222,-0.3899288475513458,-0.9140068292617798,0.06249738178346058,0.0505225483035045,0.09140496673441376,0.992565754998065,-0.23011383414268494,-0.2946070730686188,-0.6875527501106262,-0.0012283772230148315,-0.014439523220062256,-0.008985459804534912
2025-09-20T02:17:46Z,0.08564560118249442,0.12778015057054876,0.16389816921370043,-0.11196523904800415,-0.38720664381980896,-0.9151692986488342,0.0600768729898592,0.04780052002741063,0.08433956896939361,0.9934751133878669,-0.22347676753997803,-0.3031120300292969,-0.6945033073425293,-0.0010923221707344055,-0.009003549814224243,-0.009476423263549805
2025-09-20T02:17:46Z,0.08136534058964742,0.12228281238435962,0.15037807371047768,-0.11209160089492798,-0.3847639262676239,-0.9161835312843323,0.05783080462144355,0.045066927088545976,0.07739394572340795,0.9943011806643396,-0.20756614208221436,-0.2927055060863495,-0.6715890169143677,0.0017971470952033997,-0.0022884905338287354,-0.014473915100097656
2025-09-20T02:17:46Z,0.07724400612404592,0.11728242245618373,0.13753822971763865,-0.11224796622991562,-0.3825903832912445,-0.9170741438865662,0.055776791013385785,0.04247913718662221,0.0708032890340978,0.9950232599625496,-0.18994230031967163,-0.2725408375263214,-0.6295970678329468,0.004840157926082611,0.003089815378189087,-0.01710355281829834
2025-09-20T02:17:46Z,0.0733882305366929,0.11274471311328872,0.12551320858312917,-0.11237560212612152,-0.38063979148864746,-0.9178698658943176,0.053896625409197124,0.0400866698934976,0.06463655427780704,0.9956456364372152,-0.1770370453596115,-0.25384968519210815,-0.5943971276283264,0.007420428097248077,0.0036319196224212646,-0.01726919412612915
2025-09-20T02:17:46Z,0.06967701326373829,0.1084390331283133,0.1140769171078156,-0.11252079159021378,-0.378751665353775,-0.9186328053474426,0.05208925812877912,0.03781124757332216,0.05877377443773129,0.9961940276999969,-0.16954965889453888,-0.24413949251174927,-0.5710998177528381,0.007041938602924347,0.0026343166828155518,-0.015550494194030762
2025-09-20T02:17:46Z,0.06598617146495625,0.10432004489558168,0.10312665061478646,-0.11277114599943161,-0.37690842151641846,-0.9193599224090576,0.05034088887530179,0.03558412829698344,0.05315991795316814,0.9966812060628136,-0.169823557138443,-0.23796594142913818,-0.5380831956863403,0.0049561262130737305,0.006813645362854004,-0.014518976211547852
2025-09-20T02:17:46Z,0.06243738090164675,0.10025367676671525,0.09292076522332886,-0.11308669298887253,-0.3749489188194275,-0.9201220870018005,0.048579541983287844,0.033466742036293046,0.047925032840130596,0.9971073161048574,-0.1703578233718872,-0.22619383037090302,-0.49410319328308105,0.005016319453716278,0.010976523160934448,-0.015603125095367432
2025-09-20T02:17:46Z,0.059007238093759816,0.09625854699333553,0.08363222134671851,-0.113542340695858,-0.3728674650192261,-0.9209114909172058,0.04681596226541745,0.03144976555925566,0.04315534218256378,0.9974751125662812,-0.17078565061092377,-0.20781779289245605,-0.4484610855579376,0.007529072463512421,0.01065775752067566,-0.01886463165283203
2025-09-20T02:17:46Z,0.055885421764146695,0.09230444406042894,0.07515651073954044,-0.11393750458955765,-0.37066078186035156,-0.9217531085014343,0.045036738314165735,0.029622244012743916,0.03880284312735008,0.9977917436708281,-0.1708630472421646,-0.18111519515514374,-0.4127613306045532,0.011450186371803284,0.006003916263580322,-0.02375692129135132
2025-09-20T02:17:46Z,0.0532950378921751,0.08844458756237535,0.06730805571224015,-0.11401757597923279,-0.36841341853141785,-0.922643780708313,0.0432715229425178,0.028090211685382647,0.03478007367480036,0.9980624518732192,-0.1705382913351059,-0.15350283682346344,-0.38710638880729675,0.012784361839294434,0.000735163688659668,-0.024823546409606934
2025-09-20T02:17:46Z,0.05110264261422532,0.08464574957974264,0.05987256847646933,-0.11384496837854385,-0.3661336898803711,-0.9235721230506897,0.04151344929429391,0.026780234611165053,0.03097572858937999,0.9982985378603606,-0.16576941311359406,-0.13389050960540771,-0.36679285764694214,0.011460162699222565,-0.0029254257678985596,-0.02221733331680298
2025-09-20T02:17:46Z,0.04916521164791109,0.08099501988132184,0.05282344124302613,-0.1135462149977684,-0.3639083504676819,-0.9244879484176636,0.03981149720357626,0.02562028021988119,0.02737383999572565,0.9985035284072941,-0.15925291180610657,-0.12347676604986191,-0.3476885259151459,0.00802689790725708,-0.00452190637588501,-0.01808178424835205
2025-09-20T02:17:46Z,0.04727431769736636,0.07756554613262566,0.04624241936844936,-0.11333954334259033,-0.361794650554657,-0.9253425002098083,0.038205850692684847,0.024507022376818493,0.02401146613107046,0.9986807168066236,-0.14973366260528564,-0.11909499764442444,-0.3211267590522766,0.005497656762599945,-0.0025253891944885254,-0.013246417045593262
2025-09-20T02:17:46Z,0.045374955204138194,0.07435992184634957,0.04018053313504294,-0.11329171061515808,-0.3597903847694397,-0.9261295199394226,0.036698918155395124,0.023411820033585537,0.020912948638187396,0.9988331604113108,-0.14034432172775269,-0.11935681104660034,-0.29309001564979553,0.0035124048590660095,-0.0004367530345916748,-0.009465038776397705
2025-09-20T02:17:46Z,0.0434056454136135,0.0714306152226363,0.034683059852765034,-0.11347485333681107,-0.35794034600257874,-0.9268236756324768,0.0353178668989129,0.02230306860318497,0.01810030220537856,0.9989632522366814,-0.12752576172351837,-0.12191575765609741,-0.2634342312812805,0.0031623318791389465,-0.000183790922164917,-0.007485151290893555
2025-09-20T02:17:46Z,0.04124029970180989,0.06881669176168836,0.029735653386253436,-0.11400338262319565,-0.35628610849380493,-0.9273960590362549,0.034084079935536325,0.02111555573460365,0.015564556868500902,0.9990746401453393,-0.11328643560409546,-0.12618009746074677,-0.2340535819530487,0.004057958722114563,0.0002682507038116455,-0.007788419723510742
