timestamp,attitude_roll,attitude_pitch,attitude_yaw,gravity_x,gravity_y,gravity_z,quaternion_x,quaternion_y,quaternion_z,quaternion_w,rotation_rate_x,rotation_rate_y,rotation_rate_z,user_acceleration_x,user_acceleration_y,user_acceleration_z
2025-09-20T02:20:10Z,-0.23090063973989935,0.12229460614412341,-0.7808712714396305,-0.18312634527683258,-0.4058394730091095,-0.8954100012779236,0.012374238219895875,-0.12942862265335733,-0.38386079821918534,0.9141914726386826,-0.0079653887078166,-0.024696800857782364,-0.031905628740787506,0.009533792734146118,0.017121464014053345,-0.02949213981628418
2025-09-20T02:20:10Z,-0.2309733927019315,0.12215959135417127,-0.7813291102078824,-0.18307450413703918,-0.40570396184921265,-0.8954820036888123,0.012268563679442648,-0.12943966153559447,-0.3840649068218,0.9141055506746062,-0.013291489332914352,0.002915402874350548,-0.01447199285030365,0.010413169860839844,0.011904329061508179,-0.028464436531066895
2025-09-20T02:20:10Z,-0.23093713267313026,0.12190078770201909,-0.7816903347509451,-0.18296389281749725,-0.40545788407325745,-0.8956160545349121,0.012133181236654928,-0.12937726240375103,-0.38421899818915695,0.9140514596831676,-0.010318160988390446,-0.00021596532315015793,-0.014659548178315163,0.002642527222633362,0.008383750915527344,-0.0228995680809021
2025-09-20T02:20:10Z,-0.23090378288330746,0.12184289746185296,-0.7820236924356113,-0.1828451156616211,-0.40539610385894775,-0.8956682682037354,0.01209141781764784,-0.12935328837252533,-0.38436872658063453,0.913992484284756,0.00035767070949077606,-0.007423303555697203,-0.008915388956665993,0.0012453943490982056,0.008490145206451416,-0.016680240631103516
2025-09-20T02:20:10Z,-0.23119233615265677,0.12191449517875617,-0.7820946994516452,-0.18307681381702423,-0.40545961260795593,-0.895592212677002,0.012064275712553063,-0.12949887783679678,-0.3844058999487417,0.9139565961341979,0.006265801843255758,-0.020784776657819748,-0.00044835731387138367,0.002236604690551758,0.01194143295288086,-0.011779844760894775
2025-09-20T02:20:10Z,-0.2317179017175947,0.12200094863405167,-0.7819769657912806,-0.1835727095603943,-0.4055417478084564,-0.8954535126686096,0.012010633374339745,-0.129754397178223,-0.3843588805397159,0.9139407982184805,0.006023155525326729,-0.02599424496293068,0.006607433315366507,0.004896566271781921,0.009304046630859375,-0.011982560157775879
2025-09-20T02:20:10Z,-0.23231388548804688,0.12205632952415915,-0.7817722313547928,-0.1841590702533722,-0.4055978059768677,-0.895307719707489,0.011934861604453277,-0.13003580261961414,-0.38427121763366506,0.91393862638589,0.00867119524627924,-0.02697526104748249,0.010636856779456139,0.0052219778299331665,0.005972087383270264,-0.014022290706634521
2025-09-20T02:20:10Z,-0.23295898608914697,0.12241941222520489,-0.7818717137559817,-0.1846744567155838,-0.4059268534183502,-0.8950523734092712,0.011971317504132615,-0.13039856442698625,-0.38433578125870826,0.913859299524884,0.017225921154022217,-0.035801976919174194,-0.008360221982002258,0.0018768012523651123,0.0009088218212127686,-0.013826608657836914
2025-09-20T02:20:10Z,-0.2336040635007931,0.12278249815039606,-0.7819709743135318,-0.1851896047592163,-0.406255841255188,-0.89479660987854,0.012007746233972043,-0.1307612893459707,-0.3844002917932452,0.9137798428840088,0.02578064799308777,-0.04462868720293045,-0.027357304468750954,-0.0014685988426208496,-0.004154413938522339,-0.013631284236907959
2025-09-20T02:20:10Z,-0.23455064635250095,0.12330947087138772,-0.7823518249364042,-0.18587909638881683,-0.4067268669605255,-0.8944395780563354,0.012043001749469527,-0.1312938413044431,-0.3846022386846593,0.9136180019128506,0.021846972405910492,-0.05144171044230461,-0.023413075134158134,-0.0023504644632339478,0.002973884344100952,-0.017067670822143555
2025-09-20T02:20:10Z,-0.2355414297313488,0.12376428501185746,-0.7826545566144126,-0.18663649260997772,-0.40713396668434143,-0.8940966129302979,0.012041519062772359,-0.13183266534253868,-0.38476577361066966,0.9134715449939914,0.010761456564068794,-0.04176025837659836,-0.014138665981590748,0.00031723082065582275,0.008036196231842041,-0.023820996284484863
2025-09-20T02:20:10Z,-0.2362824627494316,0.12396792060100698,-0.7827134142349238,-0.18726296722888947,-0.4073182940483093,-0.893881618976593,0.011988635135299528,-0.13220926753062,-0.38480577154396944,0.9134009731722664,0.011494406498968601,-0.029084306210279465,0.0006763320416212082,0.003189399838447571,0.007315516471862793,-0.024113178253173828
2025-09-20T02:20:10Z,-0.2366922089607634,0.1242424455331693,-0.7826675194537572,-0.18761594593524933,-0.40757012367248535,-0.8936927914619446,0.012038975556586161,-0.13244708233656038,-0.3847989885700724,0.9133687148013674,0.016050264239311218,-0.01785667985677719,-0.007736108265817165,0.0040455162525177,-0.0028150081634521484,-0.02205061912536621
2025-09-20T02:20:10Z,-0.23708621789240958,0.12461736041158084,-0.7828081528554095,-0.18789242208003998,-0.40790849924087524,-0.8934803009033203,0.0121260980742619,-0.13269746070660635,-0.3848816200075983,0.9132963765226061,0.01355318445712328,-0.012396220117807388,-0.015825023874640465,0.005532950162887573,-0.0017836689949035645,-0.019411146640777588
2025-09-20T02:20:10Z,-0.23733739106577917,0.12487585840258025,-0.7829601436610732,-0.18804913759231567,-0.40814030170440674,-0.8933414816856384,0.0121864331729834,-0.1328610661051693,-0.38496360613790154,0.9132372392805376,0.012169037014245987,-0.021883241832256317,-0.004512360319495201,-0.0002643018960952759,0.005938023328781128,-0.012053370475769043
2025-09-20T02:20:10Z,-0.2379277742898732,0.125036418024961,-0.7829608559707231,-0.18856090307235718,-0.40828683972358704,-0.8931666612625122,0.012146520762723382,-0.13316043585274806,-0.3849743740006727,0.9131897416212863,0.006978622637689114,-0.034245818853378296,0.006661012768745422,0.003089398145675659,0.009205549955368042,-0.012538492679595947
2025-09-20T02:20:10Z,-0.2385850101233847,0.12506139897769195,-0.782684715682588,-0.18922342360019684,-0.40831711888313293,-0.8930127024650574,0.01204991511909787,-0.13346349264453983,-0.38485333693612767,0.913197804644318,0.0034707121085375547,-0.020493829622864723,0.018856201320886612,0.007059559226036072,0.008560717105865479,-0.018971502780914307
2025-09-20T02:20:10Z,-0.23915814813933134,0.12496311994939252,-0.782248747410228,-0.1898677498102188,-0.4082391560077667,-0.8929115533828735,0.011923622022230417,-0.13370435010249387,-0.38465346254640925,0.9132484454296477,0.0024118139408528805,-0.02801305241882801,0.02455032430589199,0.0036711394786834717,0.0054766833782196045,-0.015610694885253906
2025-09-20T02:20:10Z,-0.23973082366409057,0.12489949265079099,-0.7817324762464355,-0.1905308961868286,-0.4081948697566986,-0.8927904963493347,0.011818816393751728,-0.1339510118544628,-0.384418385405714,0.9133125296946275,-0.00018371152691543102,-0.02811925671994686,0.026795122772455215,0.0062465667724609375,0.006404906511306763,-0.01736283302307129
2025-09-20T02:20:10Z,-0.2403801685529595,0.12471713342516484,-0.7810391212107778,-0.19132395088672638,-0.4080468714237213,-0.8926885724067688,0.011656741453554711,-0.13420971042975377,-0.3840976318716693,0.9134115665941714,0.001429890631698072,-0.022285716608166695,0.0372353121638298,0.007634565234184265,0.006325751543045044,-0.01843327283859253
2025-09-20T02:20:10Z,-0.24070337208306414,0.1245360135174106,-0.780392727575111,-0.19181247055530548,-0.4078986644744873,-0.8926514387130737,0.011554849350436533,-0.13432006040389588,-0.3837963828317287,0.9135232483833554,0.0012392837088555098,-0.01646951213479042,0.0348907969892025,0.008914560079574585,0.001637190580368042,-0.0216560959815979
2025-09-20T02:20:10Z,-0.24104450032800334,0.12440766610072232,-0.7797728761419375,-0.19230437278747559,-0.40779778361320496,-0.8925917148590088,0.011472069881283794,-0.13444858016328193,-0.38350959242068033,0.913625836133454,-0.0018492883536964655,-0.004818210378289223,0.031254902482032776,0.00699634850025177,0.0004253089427947998,-0.022402703762054443
2025-09-20T02:20:10Z,-0.24124034346093726,0.12415626316992678,-0.77915479745699,-0.1926780790090561,-0.40758439898490906,-0.8926085829734802,0.01136052075036401,-0.13448807013839675,-0.3832173333421063,0.9137440368809872,-0.005017248913645744,-0.015994813293218613,0.02858659438788891,0.0019635409116744995,0.0021840929985046387,-0.018336117267608643
2025-09-20T02:20:10Z,-0.24179182200858343,0.1239052525859254,-0.7785804160201671,-0.19335687160491943,-0.40737012028694153,-0.8925596475601196,0.01117814801414686,-0.13469045237352428,-0.3829469748794707,0.9138298434201453,-0.006024741567671299,-0.025608781725168228,0.026660600677132607,0.0031968504190444946,0.0019350647926330566,-0.01637554168701172
2025-09-20T02:20:10Z,-0.24238272282858112,0.12366582064333911,-0.7781058700768623,-0.19404155015945435,-0.4071637690067291,-0.8925052285194397,0.010986943219624179,-0.13491364432219088,-0.38272284999116435,0.9138931481289374,-0.006427224725484848,-0.02855149656534195,0.026443153619766235,0.0029420852661132812,0.0012523829936981201,-0.015715360641479492
2025-09-20T02:20:10Z,-0.24300623052566347,0.1234799960799428,-0.7776594337922261,-0.1947421431541443,-0.40700551867485046,-0.8924247622489929,0.010812363288150698,-0.13516186283802936,-0.3825140135892451,0.9139459983855398,-0.0014067632146179676,-0.03308992087841034,0.020861871540546417,0.0006544589996337891,-0.0004893243312835693,-0.015725910663604736
2025-09-20T02:20:11Z,-0.24369311912412078,0.12340258822173428,-0.7772639327892946,-0.1954742819070816,-0.4069449305534363,-0.892292320728302,0.010672188616655524,-0.13545936476211481,-0.38233351762490964,0.9139791566101675,0.0029146610759198666,-0.032415375113487244,0.02062229812145233,0.0013723522424697876,0.002162337303161621,-0.016856253147125244
2025-09-20T02:20:11Z,-0.24444040678636153,0.12333459270137252,-0.7767191651838731,-0.19630135595798492,-0.4068966507911682,-0.8921327590942383,0.010535050754723375,-0.13578547023059992,-0.38208548862314157,0.9140360583488243,0.0035964110866189003,-0.02915467880666256,0.03362201154232025,0.0001392960548400879,0.006526261568069458,-0.017192840576171875
2025-09-20T02:20:11Z,-0.24522039364729623,0.12326142455090879,-0.7759205792788296,-0.19722959399223328,-0.4068499207496643,-0.8919493556022644,0.010406749471814043,-0.13612431197557257,-0.38172129620167145,0.9141393166749648,0.0036581670865416527,-0.033478882163763046,0.03807367384433746,0.0006480365991592407,0.003776639699935913,-0.01708298921585083
2025-09-20T02:20:11Z,-0.2457418177117634,0.12313054513305502,-0.7752712519428687,-0.19789071381092072,-0.40674659609794617,-0.8918500542640686,0.010291302311315866,-0.1363352325934332,-0.3814212956147912,0.9142344268285612,-0.0005590878427028656,-0.017126504331827164,0.027134716510772705,0.002100244164466858,0.0002752542495727539,-0.02026069164276123
2025-09-20T02:20:11Z,-0.24616880490681242,0.12293740613021605,-0.7747508841653499,-0.1984373778104782,-0.40658310055732727,-0.8918031454086304,0.010156547929676688,-0.13649229206016228,-0.38117688072910444,0.9143144243189407,-0.005454937927424908,-0.019078122451901436,0.02832053229212761,-0.001263245940208435,0.004651099443435669,-0.01697981357574463
2025-09-20T02:20:11Z,-0.24667079795147506,0.12257613208865628,-0.7741284214709084,-0.1990964114665985,-0.406268447637558,-0.8917996287345886,0.009937223821271648,-0.13665235596345823,-0.38087844602666615,0.9144173347051334,-0.009500706568360329,-0.02469654381275177,0.038482099771499634,-0.0013223737478256226,0.00738409161567688,-0.015472948551177979
2025-09-20T02:20:11Z,-0.24728957714178595,0.12218448452965047,-0.7732751194529839,-0.1999276727437973,-0.40593141317367554,-0.891767144203186,0.009697592930616316,-0.13685930202595883,-0.38047353309294285,0.914557396272942,-0.013851828873157501,-0.020145850256085396,0.04161875322461128,0.0009450465440750122,0.0044397711753845215,-0.01768934726715088
2025-09-20T02:20:11Z,-0.2476983435406123,0.12165693405554748,-0.772574633749906,-0.2005421370267868,-0.4054662883281708,-0.8918407559394836,0.009425061276469518,-0.13694625214718945,-0.3801310665989703,0.9146895891818478,-0.013490594923496246,-0.01835728995501995,0.034566134214401245,-0.00024019181728363037,0.0011763572692871094,-0.018845856189727783
2025-09-20T02:20:11Z,-0.2481905400848227,0.12110590143732444,-0.7718998398002015,-0.20122620463371277,-0.4049789309501648,-0.8919081091880798,0.009124201400687364,-0.13706736981598805,-0.3797994303047265,0.9148123592052539,-0.020442532375454903,-0.01794762723147869,0.04397827386856079,-0.0014311149716377258,0.0075960056856274605,-0.018383003771305084
2025-09-20T02:20:11Z,-0.2484807129040201,0.1202399349136266,-0.7709823352419262,-0.20182985067367554,-0.40420907735824585,-0.8921209573745728,0.008733430283416149,-0.13703765809236018,-0.37934115862813744,0.9150107565722015,-0.025795741006731987,-0.0045438362285494804,0.05487621948122978,0.0009922534227371216,0.006315052509307861,-0.020193397998809814
2025-09-20T02:20:11Z,-0.24857967222629712,0.11940083817432343,-0.7699596354239938,-0.2022898644208908,-0.4034656584262848,-0.8923532366752625,0.008398438080236962,-0.13692528457021963,-0.37883489962304046,0.9152404162992746,-0.024049900472164154,0.0017970497719943523,0.05586834251880646,0.0003014504909515381,0.0005677342414855957,-0.019230425357818604
2025-09-20T02:20:11Z,-0.248598946465179,0.11863307476650475,-0.7690379956543426,-0.20264312624931335,-0.40278464555740356,-0.8925806879997253,0.00810434810482652,-0.1367902082737326,-0.3783776335691885,0.9154524151071142,-0.02328871563076973,0.0046679554507136345,0.04978151619434357,-0.0009715557098388672,-0.0021503567695617676,-0.019034624099731445
2025-09-20T02:20:11Z,-0.2485448721596317,0.11782465108019331,-0.7681792503740816,-0.20291708409786224,-0.4020644724369049,-0.8928431272506714,0.007800969360199768,-0.13661467268777597,-0.3779468191553561,0.9156591897059436,-0.02998790517449379,0.013239096850156784,0.04978306218981743,0.0014780163764953613,0.0025084316730499268,-0.02079486846923828
2025-09-20T02:20:11Z,-0.2482431803042946,0.11685112234963324,-0.7673275348041273,-0.2029840499162674,-0.4011925160884857,-0.893220067024231,0.007467645908545837,-0.13629596965122706,-0.3775104645373054,0.9158894626563923,-0.0361611470580101,0.02389049157500267,0.055576276034116745,0.0026413053274154663,0.005162864923477173,-0.021316230297088623
2025-09-20T02:20:11Z,-0.24774646480690646,0.11577399297938165,-0.7664025511228407,-0.20290717482566833,-0.4002266824245453,-0.8936706781387329,0.007128047453111039,-0.13586909045078757,-0.3770349557585777,0.9161514150343283,-0.03749445453286171,0.03181042522192001,0.057570893317461014,0.0020088404417037964,0.003434419631958008,-0.020905256271362305
2025-09-20T02:20:11Z,-0.2475277559580789,0.11505237322759682,-0.7655754929596522,-0.20301580429077148,-0.3995837867259979,-0.8939336538314819,0.0068928753012721935,-0.13563480354059484,-0.37662175326841174,0.9163578294908022,-0.030448324978351593,0.02268810197710991,0.05542012304067612,0.002333343029022217,0.004250019788742065,-0.019178271293640137
2025-09-20T02:20:11Z,-0.2473084365842523,0.11433093970823006,-0.7647484156148204,-0.20312370359897614,-0.39894068241119385,-0.8941963315010071,0.006657708364267928,-0.13540045491297914,-0.3762084488731081,0.9165639924066841,-0.023402195423841476,0.013565778732299805,0.05326935276389122,0.0026571303606033325,0.005065470933914185,-0.01745152473449707
2025-09-20T02:20:11Z,-0.24708856887749334,0.11360967382146725,-0.7639212093055825,-0.20323093235492706,-0.3982973098754883,-0.8944587707519531,0.0064225280260702565,-0.13516607798430486,-0.3757950095648364,0.9167698432466806,-0.01635606586933136,0.0044434554874897,0.05111858248710632,0.0029802322387695312,0.0058806538581848145,-0.01572507619857788
2025-09-20T02:20:11Z,-0.24701853532423904,0.1130037672588526,-0.7629675820901639,-0.20349648594856262,-0.3977620601654053,-0.8946365118026733,0.006220746151213781,-0.13502110561091638,-0.37532937062593635,0.9169833031427678,-0.012599349021911621,0.004374105948954821,0.05829758197069168,0.004022568464279175,0.006231367588043213,-0.016070306301116943
2025-09-20T02:20:11Z,-0.24699729334416545,0.11246425814887075,-0.7618096468065466,-0.20385690033435822,-0.3972916305065155,-0.8947635293006897,0.006054087493871704,-0.13491010969655864,-0.37477313320643196,0.9172282727240896,-0.008015109226107597,0.0018204033840447664,0.061900392174720764,0.003786936402320862,0.003261387348175049,-0.015421926975250244
2025-09-20T02:20:11Z,-0.24707538217448027,0.11200100265673045,-0.7605893274514909,-0.20431636273860931,-0.39689192175865173,-0.8948360681533813,0.005908092690177037,-0.13485851103944577,-0.37419197508541097,0.9174740384520577,-0.005539746023714542,-0.0008042382542043924,0.06224442273378372,0.004293963313102722,0.002079218626022339,-0.01527416706085205
2025-09-20T02:20:11Z,-0.24725976380623935,0.11156920948142521,-0.759402572578483,-0.2048584520816803,-0.3965199291706085,-0.8948770761489868,0.005754438613022792,-0.13486167756298917,-0.3736277946858311,0.9177044651394966,-0.006683936808258295,-0.006659531034529209,0.06086926907300949,0.003698498010635376,0.002344757318496704,-0.01544797420501709
2025-09-20T02:20:11Z,-0.2475075555055139,0.11108487633811659,-0.7582184480444726,-0.20546166598796844,-0.39609917998313904,-0.8949251174926758,0.005564543633246127,-0.13488471115098666,-0.37306232014885077,0.9179323192904995,-0.010602554306387901,-0.008418897166848183,0.061393022537231445,0.0038781017065048218,0.0021548569202423096,-0.017239809036254883
2025-09-20T02:20:11Z,-0.24779865582321772,0.11055907156582159,-0.7571264953007103,-0.20608162879943848,-0.39563801884651184,-0.8949865698814392,0.005341249557275078,-0.13492068982952612,-0.3725371159920214,0.9181416057606507,-0.011747929267585278,-0.014582129195332527,0.05292074754834175,0.002991318702697754,0.00027495622634887695,-0.015859365463256836
2025-09-20T02:20:11Z,-0.2482013515476209,0.11011461969549484,-0.7562753601053153,-0.206725612282753,-0.3952464759349823,-0.8950110673904419,0.005118552653955215,-0.13502341563163214,-0.37212638456647384,0.9182943612192134,-0.010723142884671688,-0.02008351869881153,0.03885260969400406,0.0018882900476455688,-0.001968681812286377,-0.015413522720336914
2025-09-20T02:20:11Z,-0.24870291123488736,0.10975001683134121,-0.7556594929464853,-0.20738384127616882,-0.3949234187602997,-0.8950013518333435,0.004898529403468437,-0.13518668701852765,-0.37182759141203015,0.9183924320495881,-0.01075228862464428,-0.022596586495637894,0.03033769503235817,0.002161175012588501,8.732080459594727e-06,-0.01452171802520752
2025-09-20T02:20:11Z,-0.24924430030921813,0.10937129291352554,-0.7552302523042296,-0.2080264538526535,-0.39458373188972473,-0.8950020670890808,0.004652077075747467,-0.13536627569185225,-0.37161373980168105,0.9184538320030203,-0.010631547309458256,-0.02247808501124382,0.027650507166981697,0.0023056715726852417,0.0017041563987731934,-0.016164183616638184
2025-09-20T02:20:11Z,-0.24978550268340444,0.10899234698944911,-0.7548013121783568,-0.20866888761520386,-0.3942437469959259,-0.8950023055076599,0.004405624732694459,-0.13554584413823745,-0.37139986586549617,0.9185151082564822,-0.010510806925594807,-0.022359583526849747,0.024963319301605225,0.0024499744176864624,0.003399282693862915,-0.01780712604522705
2025-09-20T02:20:11Z,-0.250295513744492,0.10864410846152726,-0.7543663069377817,-0.20928214490413666,-0.3939319849014282,-0.8949964046478271,0.004179637832924126,-0.13571668946861098,-0.3711844770917101,0.9185780153310794,-0.009241899475455284,-0.01615137979388237,0.026372717693448067,0.0022111237049102783,0.003259599208831787,-0.019835293292999268
2025-09-20T02:20:11Z,-0.25067873073415137,0.10839781787701537,-0.7538645477382395,-0.20979084074497223,-0.3937150537967682,-0.8949728012084961,0.004028867777777073,-0.13584752872341527,-0.3709429544499741,0.9186569300722034,-0.0024585574865341187,-0.01682208850979805,0.025912132114171982,0.0008452236652374268,0.0014757513999938965,-0.01936781406402588
2025-09-20T02:20:11Z,-0.2510625860853461,0.10823864841882568,-0.753316853736074,-0.21030455827713013,-0.3935789465904236,-0.89491206407547,0.003921409879008717,-0.13599425355351943,-0.3706844597372366,0.9187400351432546,0.0017560371197760105,-0.014497035183012486,0.027516644448041916,0.0005925297737121582,0.0020358264446258545,-0.019738733768463135
2025-09-20T02:20:11Z,-0.25135960039566735,0.1081465364498111,-0.752721633395365,-0.21074740588665009,-0.3935052454471588,-0.8948403000831604,0.003864324830980735,-0.13611305922719125,-0.3704071549181842,0.9188344938997551,0.0025876760482788086,-0.00952176284044981,0.02723660320043564,0.001327604055404663,0.0014476776123046875,-0.01966792345046997
2025-09-20T02:20:11Z,-0.25150636368493606,0.10803969847894836,-0.7521434951805518,-0.21105241775512695,-0.3934175968170166,-0.894806981086731,0.0038271543944861084,-0.13616027092735014,-0.37013664823302794,0.9189366530997224,0.0018933438695967197,-0.0039598518051207066,0.025316882878541946,0.0017514228820800781,-0.00034040212631225586,-0.018888115882873535
2025-09-20T02:20:11Z,-0.25159226784416655,0.10791000077254448,-0.7516658893705713,-0.2112768143415451,-0.3933069705963135,-0.8948026299476624,0.0037838573267430305,-0.1361756611282422,-0.3699110870756563,0.9190253263647552,-0.0014318060129880905,-0.0006237342022359371,0.02047497034072876,0.0015883594751358032,-0.0015744566917419434,-0.017505407333374023
2025-09-20T02:20:11Z,-0.25164411744146514,0.10772524223758659,-0.7513158475670214,-0.21144013106822968,-0.3931434452533722,-0.894835889339447,0.0037127443135234906,-0.13616582558571735,-0.3697413670190078,0.9190953981424526,-0.005377576220780611,0.0007634577341377735,0.015160486102104187,0.002046540379524231,-0.0025937557220458984,-0.017057716846466064
2025-09-20T02:20:11Z,-0.2516910518538554,0.10749809745707106,-0.7511199328960495,-0.21155968308448792,-0.39293813705444336,-0.8948978185653687,0.003612458233170257,-0.13614647426825435,-0.36964039847964064,0.9191392860844488,-0.008521989919245243,-0.0024632993154227734,0.007635681424289942,0.00147344172000885,-0.003730267286300659,-0.016345322132110596
2025-09-20T02:20:11Z,-0.2517936324392694,0.10724425222574135,-0.7510639626585092,-0.21169212460517883,-0.3927057385444641,-0.8949685096740723,0.0034800226237330237,-0.13614819580634452,-0.369602534156833,0.9191547689914299,-0.010855043306946754,-0.006884434726089239,0.005231903865933418,0.001298457384109497,-0.003562837839126587,-0.015960633754730225
2025-09-20T02:20:11Z,-0.25201592457517463,0.10699665204319049,-0.7510212915365647,-0.2119273692369461,-0.3924788236618042,-0.895012378692627,0.0033274489144566287,-0.1362060759284636,-0.3695712616023427,0.9191593505259807,-0.008825013414025307,-0.013193560764193535,0.00573714030906558,0.002279803156852722,-0.002922236919403076,-0.015437960624694824
2025-09-20T02:20:11Z,-0.25235851792540737,0.10679004254473719,-0.7509716089611482,-0.21226824820041656,-0.3922897279262543,-0.8950145244598389,0.0031720706403317966,-0.1363265544259177,-0.3695389160671033,0.9191550749369876,-0.010440711863338947,-0.015023082494735718,0.004443459212779999,0.0035586506128311157,-0.003383815288543701,-0.016464531421661377
2025-09-20T02:20:11Z,-0.25267680711632795,0.1065143261198727,-0.7509585479685094,-0.21258383989334106,-0.3920363783836365,-0.8950506448745728,0.0029867613784935235,-0.1364235912965928,-0.3695199494944205,0.9191489239945945,-0.014743829146027565,-0.01689049042761326,0.004234118387103081,0.003942281007766724,-0.0024478137493133545,-0.01738375425338745
2025-09-20T02:20:11Z,-0.25299481462597456,0.1061359057591035,-0.7509490062018817,-0.21290826797485352,-0.3916884660720825,-0.8951258063316345,0.0027538166300181926,-0.136502170383332,-0.36949751771516226,0.9191469951282496,-0.01990320533514023,-0.0182482972741127,0.006961335893720388,0.003640472888946533,-0.001672893762588501,-0.01606827974319458
2025-09-20T02:20:11Z,-0.25337086379293244,0.10564832148710808,-0.7509003014319063,-0.2133064568042755,-0.3912407457828522,-0.8952268362045288,0.002462395043762491,-0.13658788590038723,-0.3694517232391073,0.9191534938917539,-0.021675150841474533,-0.022121090441942215,0.01145503856241703,0.004083037376403809,-0.00066336989402771,-0.01525050401687622
2025-09-20T02:20:11Z,-0.25388480654260187,0.10515639715882565,-0.7507922768382842,-0.21384531259536743,-0.3907899856567383,-0.8952951431274414,0.002147565404190807,-0.13673614888152028,-0.36937848798949524,0.9191616458597961,-0.020055053755640984,-0.022605624049901962,0.00980430282652378,0.0050068199634552,-0.0019282996654510498,-0.018097400665283203
2025-09-20T02:20:11Z,-0.2543104523674855,0.10468146428950775,-0.7507916454968369,-0.21427319943904877,-0.39035284519195557,-0.8953835368156433,0.0018495719427501821,-0.13684699074891007,-0.36935519890705254,0.9191551481932042,-0.020945187658071518,-0.01944403350353241,0.005517410114407539,0.0058745890855789185,-0.0025043487548828125,-0.02083885669708252
2025-09-20T02:20:11Z,-0.2547410900725566,0.1042242258092618,-0.7508149891024275,-0.21469713747501373,-0.38993149995803833,-0.8954655528068542,0.0015572001097848157,-0.13696329898764664,-0.36934367566358994,0.9191429955548526,-0.023607246577739716,-0.020725112408399582,0.005803835112601519,0.005182743072509766,-0.00048238039016723633,-0.02091050148010254
2025-09-20T02:20:11Z,-0.25515711993062035,0.1036922851468287,-0.7507281724678957,-0.21514646708965302,-0.3894432485103607,-0.8955701589584351,0.001240569314893133,-0.13705948034061805,-0.36927768174993886,0.9191556393199756,-0.0244593508541584,-0.017425334081053734,0.013778945431113243,0.005762457847595215,0.0018520057201385498,-0.021405696868896484
2025-09-20T02:20:11Z,-0.2554905268230909,0.10310248285461099,-0.7505088813142552,-0.21556490659713745,-0.3889039158821106,-0.895703911781311,0.0009215602183631745,-0.13710732317260166,-0.36914773767299475,0.9192010575367023,-0.023882903158664703,-0.016024192795157433,0.017839990556240082,0.005789011716842651,0.000681459903717041,-0.020222246646881104
2025-09-20T02:20:11Z,-0.25583293234602156,0.10254943273611186,-0.7503082662820655,-0.2159825563430786,-0.3883979916572571,-0.8958228230476379,0.0006166099672952527,-0.1371659308902815,-0.36902807850804015,0.9192405939919513,-0.022773005068302155,-0.012952171266078949,0.014682184904813766,0.004892036318778992,-0.0015076100826263428,-0.021124422550201416
2025-09-20T02:20:11Z,-0.2560234473359469,0.10197835271752684,-0.7501442422472112,-0.21625562012195587,-0.38787466287612915,-0.8959836959838867,0.00032886056352512825,-0.1371515661956534,-0.36892417306614983,0.9192845985895444,-0.02585802786052227,-0.00963754765689373,0.015189024619758129,0.004342392086982727,-0.0006387829780578613,-0.02193993330001831
2025-09-20T02:20:11Z,-0.25624668530521827,0.10132503195802363,-0.7499693274562311,-0.21656915545463562,-0.3872756063938141,-0.8961670398712158,-2.169254099112321e-06,-0.13713761003638839,-0.36881104112308866,0.919332167150776,-0.030572736635804176,-0.00784188974648714,0.01903897151350975,0.004492059350013733,0.0026758313179016113,-0.02214723825454712
2025-09-20T02:20:12Z,-0.25634278122771353,0.10054932029073241,-0.7497624806746932,-0.21678972244262695,-0.38656407594680786,-0.8964208960533142,-0.0003641183444628726,-0.13704343266487717,-0.3686769819526246,0.9193999404671968,-0.035875678062438965,-0.002928942907601595,0.022267961874604225,0.005865827202796936,0.004812002182006836,-0.022602558135986328
2025-09-20T02:20:12Z,-0.2564721074639091,0.09971315865509685,-0.7495264342425783,-0.21705412864685059,-0.38579702377319336,-0.8966873288154602,-0.0007581455045271608,-0.13695383105749734,-0.36852635910234516,0.9194733929071178,-0.03592225909233093,-0.0038123198319226503,0.02138778567314148,0.004549756646156311,0.004934221506118774,-0.022277355194091797
2025-09-20T02:20:12Z,-0.25649594168799,0.09889367022254976,-0.7492913446770368,-0.2172219306230545,-0.38504505157470703,-0.8969698548316956,-0.0011251192148257433,-0.13681877512675086,-0.3683769508899673,0.9195529441653897,-0.033354733139276505,0.00035585672594606876,0.025719676166772842,0.004313617944717407,0.005630970001220703,-0.021224796772003174
2025-09-20T02:20:12Z,-0.2564794809590532,0.09817239450166179,-0.7488938639703657,-0.21738968789577484,-0.3843863010406494,-0.8972117304801941,-0.0014282145194536953,-0.1366828728653332,-0.36815776116345134,0.9196605426616292,-0.025378378108143806,0.0043054139241576195,0.028317643329501152,0.004711702466011047,0.005198180675506592,-0.015557825565338135
2025-09-20T02:20:12Z,-0.2565157274637976,0.09765861177961313,-0.7483938689908771,-0.2176133245229721,-0.3839206099510193,-0.8973568677902222,-0.0016381649196829,-0.13660837155012875,-0.3679018165877419,0.9197736983487104,-0.01002513524144888,-0.005203309468924999,0.02905167266726494,0.0038043558597564697,0.00545164942741394,-0.005497455596923828
2025-09-20T02:20:12Z,-0.2568036358734657,0.09741629113242323,-0.7478327295133502,-0.21805357933044434,-0.3837064504623413,-0.8973416090011597,-0.0017647642417662921,-0.13669811003728174,-0.3676312225690333,0.9198683184763754,0.0024650897830724716,-0.01787342131137848,0.02935454435646534,0.003789350390434265,0.0033023059368133545,-0.0015158653259277344
2025-09-20T02:20:12Z,-0.2573237665763148,0.09737123936245998,-0.7471611595701365,-0.21871411800384521,-0.3836761713027954,-0.8971937894821167,-0.0018352133003828365,-0.1369299319145518,-0.36731956519072334,0.9199582337614935,0.010267824865877628,-0.02645864710211754,0.032404202967882156,0.0030078142881393433,0.001959383487701416,-0.004582524299621582
2025-09-20T02:20:12Z,-0.2579400054944578,0.09743365300794342,-0.746342240091961,-0.21949180960655212,-0.383747398853302,-0.8969734311103821,-0.0018633533919363114,-0.1372252562220019,-0.3669454670683362,0.9200634580858338,0.013349303044378757,-0.03161507844924927,0.04220118001103401,0.0007007420063018799,0.002234041690826416,-0.010092556476593018
2025-09-20T02:20:12Z,-0.2586757231502589,0.09737897288709861,-0.7452478154941486,-0.22046566009521484,-0.38371482491493225,-0.8967484831809998,-0.0019483426954507023,-0.13755507242484816,-0.36643845517470824,0.9202161068936598,0.007913997396826744,-0.03154148906469345,0.0594743937253952,-0.0012582093477249146,0.002737879753112793,-0.016807973384857178
2025-09-20T02:20:12Z,-0.2593682411753855,0.09711634073459652,-0.7439019660083396,-0.22149193286895752,-0.3834938108921051,-0.8965901136398315,-0.0021039148307057547,-0.13782856725561418,-0.36580497738852824,0.9204268250150047,0.0016867155209183693,-0.023749174550175667,0.07267111539840698,-0.0022065937519073486,0.001350313425064087,-0.02424323558807373
2025-09-20T02:20:12Z,-0.2598192568972074,0.09670571122733658,-0.7424407120799983,-0.22234876453876495,-0.38313737511634827,-0.8965304493904114,-0.0022755136545347067,-0.13796512166843578,-0.3651107455721513,0.9206815897856466,-0.00442861020565033,-0.005338411778211594,0.07877449691295624,-0.0031881481409072876,-0.0008313655853271484,-0.03216397762298584
2025-09-20T02:20:12Z,-0.25988890130829123,0.09610993613685911,-0.7408439808283771,-0.22292010486125946,-0.3826112449169159,-0.8966132402420044,-0.002453746923614739,-0.13789388924234547,-0.3643447159642981,0.9209952504659495,-0.012531205080449581,0.011763222515583038,0.08871309459209442,-0.005654752254486084,-4.738569259643555e-05,-0.03561043739318848
2025-09-20T02:20:12Z,-0.2594792163144168,0.09519813301280847,-0.7389634205173179,-0.2231726199388504,-0.381796270608902,-0.8968977928161621,-0.002671730525697158,-0.13754696458802193,-0.36343189934846426,0.9214070713988392,-0.02221434749662876,0.041254960000514984,0.11299298703670502,-0.001232936978340149,0.006750136613845825,-0.037329018115997314
2025-09-20T02:20:12Z,-0.2585519322343117,0.09401296101013158,-0.7367579693590249,-0.22307871282100677,-0.3807317018508911,-0.8973735570907593,-0.002900928706022987,-0.13691442212478522,-0.36235557285146386,0.9219243217541174,-0.031593240797519684,0.07124103605747223,0.12678752839565277,0.0015551745891571045,0.005634695291519165,-0.03913062810897827
2025-09-20T02:20:12Z,-0.25697956263380617,0.09260633772000008,-0.7343188450847532,-0.2224920243024826,-0.3794633746147156,-0.898056149482727,-0.003101781821196079,-0.13594647864782544,-0.3611606542495119,0.9225355795890207,-0.03678155690431595,0.0989113599061966,0.1432855725288391,0.002567082643508911,0.009538829326629639,-0.03680849075317383
2025-09-20T02:20:12Z,-0.25509320790302986,0.09105706940192136,-0.7315059826378189,-0.22174043953418732,-0.3780651092529297,-0.8988314270973206,-0.003289543904300171,-0.13480976612901652,-0.3597860911628772,0.9232385768609632,-0.038791950792074203,0.11142326146364212,0.16432493925094604,0.0010597854852676392,0.013535410165786743,-0.030009329319000244
2025-09-20T02:20:12Z,-0.25309167480898587,0.08938852172614975,-0.7282686929491303,-0.22101396322250366,-0.37655794620513916,-0.8996426463127136,-0.0034870095662470862,-0.13360031723251684,-0.3582091319915676,0.9240264820031523,-0.03976977616548538,0.11402920633554459,0.18725788593292236,0.000583946704864502,0.017370879650115967,-0.022865891456604004
2025-09-20T02:20:12Z,-0.2510511887805725,0.08758284524607964,-0.7245692078451506,-0.22039322555065155,-0.37492433190345764,-0.90047687292099,-0.0037147048592632024,-0.13235059082039927,-0.35641087966315954,0.9249003839593432,-0.040422238409519196,0.11582037061452866,0.2134465128183365,0.0038655251264572144,0.0229988694190979,-0.016101419925689697
2025-09-20T02:20:12Z,-0.24888979797016944,0.08569870960997304,-0.720132383788497,-0.21987660229206085,-0.37321937084198,-0.9013110399246216,-0.003913931982842901,-0.13103372849434086,-0.3542666090439278,0.9259103500790327,-0.03459717333316803,0.1265229880809784,0.2354513704776764,0.0036369413137435913,0.020709246397018433,-0.015835165977478027
2025-09-20T02:20:12Z,-0.24672032480907888,0.0838241596872594,-0.7156921773108915,-0.2193497121334076,-0.37151628732681274,-0.9021426439285278,-0.004113115064424353,-0.12971587289531045,-0.352119716280615,0.9269134666079311,-0.028772110119462013,0.13722561299800873,0.2574562430381775,0.0033980756998062134,0.018421471118927002,-0.015571415424346924
2025-09-20T02:20:12Z,-0.24447674334147856,0.08204016836793375,-0.7106099833143431,-0.21892686188220978,-0.3698942959308624,-0.9029115438461304,-0.0042220107384292604,-0.1283815185812185,-0.34967810039629554,0.928022453945799,-0.016059916466474533,0.12616337835788727,0.27818769216537476,0.00017952919006347656,0.013444572687149048,-0.012902438640594482
2025-09-20T02:20:12Z,-0.2425421129079968,0.08041934454958503,-0.7050965546914122,-0.21888841688632965,-0.36841723322868347,-0.9035245776176453,-0.004288044710314421,-0.12722018483330844,-0.34704141076584144,0.9291711129706561,-0.005941232666373253,0.11221730709075928,0.29829078912734985,1.582503318786621e-05,0.01164621114730835,-0.015674889087677002
2025-09-20T02:20:12Z,-0.24077741497509078,0.07881567416634701,-0.6990746788992648,-0.21914473176002502,-0.366947740316391,-0.9040602445602417,-0.004349848729318697,-0.12614290603755177,-0.3441659275528888,0.9303864153523025,-0.00234181247651577,0.11398990452289581,0.3295096755027771,0.002089947462081909,0.015549778938293457,-0.0233575701713562
2025-09-20T02:20:12Z,-0.23862906787195937,0.07709081520917124,-0.6921359103191468,-0.21932362020015717,-0.3653546869754791,-0.9046618938446045,-0.0043522380567027575,-0.12487002295623853,-0.34085483137750927,0.9317759746690508,0.0036372090689837933,0.1581064760684967,0.37037602066993713,0.009382665157318115,0.013520151376724243,-0.03649091720581055
2025-09-20T02:20:12Z,-0.23575060711231807,0.07548461616098388,-0.6843794270936002,-0.21906213462352753,-0.36385592818260193,-0.9053290486335754,-0.00413451114686928,-0.12327887650415972,-0.33716513777601564,0.9333299895356423,0.022385869175195694,0.19454149901866913,0.4083362817764282,0.007568761706352234,0.011750847101211548,-0.03555774688720703
2025-09-20T02:20:12Z,-0.23226714010547742,0.07414476727733176,-0.6758650435526522,-0.21844367682933807,-0.3625839054584503,-0.9059885740280151,-0.003657624980432539,-0.12144936412107603,-0.3331295832783921,0.9350194031138791,0.04476991295814514,0.20885655283927917,0.43841761350631714,0.0035484284162521362,0.00938880443572998,-0.027341842651367188
2025-09-20T02:20:12Z,-0.22884459357753534,0.07307273837219927,-0.6668525782059322,-0.21799816191196442,-0.36153653264045715,-0.9065142869949341,-0.0030510251182336873,-0.11968977444413485,-0.3288662653042737,0.9367560821373575,0.05484301596879959,0.20675648748874664,0.45092228055000305,0.00454297661781311,0.008473902940750122,-0.019600331783294678
2025-09-20T02:20:12Z,-0.2252706561865782,0.07207415362673736,-0.6576492007493111,-0.21746236085891724,-0.3605317175388336,-0.9070429801940918,-0.0023901497295937125,-0.11786753756400661,-0.3245088323426779,0.9385070082493682,0.056527961045503616,0.21417424082756042,0.46622103452682495,0.009218811988830566,0.011784642934799194,-0.016791462898254395
2025-09-20T02:20:12Z,-0.22148665498250295,0.07107175478948428,-0.6478893043086799,-0.21689337491989136,-0.35949158668518066,-0.9075918793678284,-0.0016821831007675946,-0.11594237838153192,-0.3198811783321041,0.9403352715469266,0.06323035806417465,0.24116826057434082,0.4921780228614807,0.014323830604553223,0.012605786323547363,-0.018243610858917236
2025-09-20T02:20:12Z,-0.21718548609633345,0.07029458394712795,-0.6376125931846657,-0.2159828245639801,-0.3586256802082062,-0.9081514477729797,-0.0007759474348299191,-0.11380385988296281,-0.3150111253514934,0.942239813501796,0.08840076625347137,0.2638833820819855,0.5196037292480469,0.0119791179895401,0.011753261089324951,-0.01387709379196167
2025-09-20T02:20:12Z,-0.21258612270156577,0.07000266142761304,-0.6265565891423638,-0.21498516201972961,-0.3581675589084625,-0.9085688591003418,0.00042744978310979424,-0.11159110278556335,-0.3097839966120803,0.9442356323908576,0.11863251775503159,0.26871779561042786,0.5609831213951111,0.005282238125801086,0.01644173264503479,-0.011584699153900146
2025-09-20T02:20:12Z,-0.2079957669145889,0.07001703855294587,-0.6144979543990283,-0.21425852179527283,-0.35793790221214294,-0.9088309407234192,0.0018050014123990393,-0.1094169045834346,-0.3040826118000967,0.9463394011274456,0.13013726472854614,0.2770102024078369,0.6111688613891602,0.0019779354333877563,0.023329108953475952,-0.01828545331954956
2025-09-20T02:20:12Z,-0.20310784456532602,0.06991047451791724,-0.6014457441063097,-0.21355360746383667,-0.35752761363983154,-0.9091582894325256,0.003196421062186714,-0.107069337847421,-0.29788860765222985,0.9485716615484765,0.12532496452331543,0.29696011543273926,0.6588916182518005,0.0031241774559020996,0.023628443479537964,-0.027373313903808594
2025-09-20T02:20:12Z,-0.19792316448718067,0.0696085518754465,-0.5875940939173211,-0.2128191441297531,-0.35686174035072327,-0.9095920324325562,0.004549198745958594,-0.10453698643622701,-0.2912879351549418,0.950895657791368,0.12083722651004791,0.31635499000549316,0.7045060396194458,-0.0003689229488372803,0.020891308784484863,-0.033061325550079346
2025-09-20T02:20:12Z,-0.19237071455399476,0.06909673663562924,-0.5724387096224549,-0.21213291585445404,-0.3558998107910156,-0.9101290702819824,0.005885385609453636,-0.10178210659982016,-0.28403705497652965,0.9533774661191654,0.1270047277212143,0.3385028541088104,0.7923384308815002,-0.006414443254470825,0.028331130743026733,-0.031519949436187744
2025-09-20T02:20:12Z,-0.18661995198800754,0.068461012037993,-0.555241224167776,-0.2118506133556366,-0.35467615723609924,-0.9106723666191101,0.007248979466636591,-0.09889336750624335,-0.2757827409950275,0.956091701117062,0.13378089666366577,0.35553058981895447,0.9087769985198975,-0.012467369437217712,0.03790906071662903,-0.029754042625427246
