timestamp,attitude_roll,attitude_pitch,attitude_yaw,gravity_x,gravity_y,gravity_z,quaternion_x,quaternion_y,quaternion_z,quaternion_w,rotation_rate_x,rotation_rate_y,rotation_rate_z,user_acceleration_x,user_acceleration_y,user_acceleration_z
2025-09-20T01:56:46Z,0.013956000321714276,0.008051336929779168,0.030192459902952003,-0.10011151432991028,-0.2790825068950653,-0.9550343751907349,0.003919765240684939,0.007037860622777614,0.015123254907809509,0.9998531470221509,0.04470914229750633,-0.0014420421794056892,-0.022009460255503654,-0.0003582984209060669,-0.00795292854309082,-0.014955580234527588
2025-09-20T01:56:46Z,0.014039836797442775,0.009019923000771922,0.029681665789357294,-0.09989660978317261,-0.28006383776664734,-0.9547695517539978,0.004405163154992988,0.0070859442504831015,0.01487142867083396,0.9998545063697352,0.052309952676296234,0.01074763759970665,-0.02802642062306404,0.0016592219471931458,-0.009731084108352661,-0.016134977340698242
2025-09-20T01:56:46Z,0.014279698646867362,0.010067536285692917,0.02904545850434326,-0.09949909895658493,-0.28113436698913574,-0.9544963836669922,0.004929403991542731,0.007212045359935307,0.014557602210624087,0.9998557698029008,0.05627540498971939,0.011526894755661488,-0.03466349095106125,0.0010809823870658875,-0.008301377296447754,-0.014073014259338379
2025-09-20T01:56:46Z,0.014385903162936779,0.01116402441513482,0.0282772022961417,-0.09919355809688568,-0.28226593136787415,-0.954194188117981,0.005479589238714955,0.0072709763946256665,0.014177692678298872,0.9998578995716296,0.059115972369909286,0.0014958102256059647,-0.03920699656009674,-0.00018193572759628296,-0.005784094333648682,-0.010696172714233398
2025-09-20T01:56:46Z,0.014299901154422222,0.012345695535797601,0.027440404769254963,-0.09905312210321426,-0.28348585963249207,-0.9538470506668091,0.0060739773866873795,0.0072337685684592925,0.01376329193120795,0.9998605702477341,0.06110687181353569,-0.014385247603058815,-0.04210428148508072,-0.0008345246315002441,-0.003986746072769165,-0.006812751293182373
2025-09-20T01:56:46Z,0.013844063775090789,0.013622366354187608,0.02648674712023938,-0.09923381358385086,-0.28480878472328186,-0.9534341096878052,0.006718705095282041,0.007011407203659395,0.013289505465472468,0.9998644518802671,0.06713692098855972,-0.031975820660591125,-0.04743806645274162,-0.0015742778778076172,-0.003419220447540283,-0.005506157875061035
2025-09-20T01:56:46Z,0.013139163603506523,0.015103681891175696,0.025501739700944468,-0.09964367747306824,-0.2863292396068573,-0.9529358148574829,0.007467230234547244,0.006665100625540731,0.012799494132436183,0.9998679129324106,0.0813675969839096,-0.04789387434720993,-0.04809239134192467,-0.0018643513321876526,-0.0035092830657958984,-0.005264163017272949
2025-09-20T01:56:46Z,0.011961213696756512,0.01715212528077662,0.02452287353601755,-0.1005069687962532,-0.2883874475955963,-0.9522242546081543,0.008501834265388171,0.006085051240360007,0.012311745579217458,0.9998694719453435,0.10121522843837738,-0.05568498745560646,-0.0440627783536911,-0.0020727142691612244,-0.0023949742317199707,-0.007717609405517578
2025-09-20T01:56:46Z,0.010785216029504633,0.01920170519731929,0.023546363770871468,-0.10136745125055313,-0.2904450297355652,-0.9515073895454407,0.009536417325972825,0.0055049866114023184,0.011823965939542342,0.9998693983547449,0.12106286734342575,-0.06347610056400299,-0.04003316909074783,-0.0022838786244392395,-0.0012813210487365723,-0.010176301002502441
2025-09-20T01:56:46Z,0.009436184845854019,0.02173202031984073,0.02270791836097418,-0.10242974013090134,-0.29294225573539734,-0.9506276845932007,0.010811411581378907,0.004840858586183634,0.011404182084132325,0.9998647045141658,0.14626027643680573,-0.07323130965232849,-0.03565320000052452,-0.0038350075483322144,-0.0031615495681762695,-0.01142817735671997
2025-09-20T01:56:46Z,0.007887167001847462,0.024861589668566664,0.021862568915978396,-0.10367927700281143,-0.2960067689418793,-0.9495422840118408,0.012386532132664883,0.004078910607948721,0.01097915558073989,0.9998546139320288,0.17727147042751312,-0.0875578448176384,-0.040200501680374146,-0.0032819733023643494,-0.005733996629714966,-0.011645376682281494
2025-09-20T01:56:46Z,0.005960863191356613,0.028563622769511327,0.0209488112325375,-0.10526590049266815,-0.29961827397346497,-0.9482341408729553,0.014249264861346546,0.003129544818223516,0.010515661698321107,0.9998382601502338,0.2042815238237381,-0.10094542801380157,-0.04707127809524536,-0.0028319209814071655,-0.004275977611541748,-0.012801647186279297
2025-09-20T01:56:46Z,0.00404753260221139,0.032686858805732626,0.0200204534257034,-0.10683205723762512,-0.30362561345100403,-0.946783185005188,0.01632159618587377,0.002186984642507447,0.01004177550654506,0.9998138576616594,0.2246256172657013,-0.10480307042598724,-0.04549647867679596,-0.0011896118521690369,0.0014629662036895752,-0.013585150241851807
2025-09-20T01:56:46Z,0.0020110339675506483,0.03711654532427575,0.01908664831034228,-0.1085081398487091,-0.3079177439212799,-0.9452050924301147,0.018546761417001473,0.001182392768416561,0.009560191224885732,0.9997814465295505,0.2341599017381668,-0.10440530627965927,-0.043923743069171906,0.000726163387298584,0.004343003034591675,-0.01397627592086792
2025-09-20T01:56:46Z,2.717299429792838e-05,0.041693373094190286,0.018201981999415404,-0.11014188826084137,-0.3123370409011841,-0.9435647130012512,0.020844192272527113,0.00020329219937694848,0.00909917219535548,0.9997411867297722,0.23984085023403168,-0.09831909835338593,-0.044260550290346146,0.0021821334958076477,0.003780364990234375,-0.015180826187133789
2025-09-20T01:56:46Z,-0.001782560415126272,0.04632537496765986,0.017287109230209933,-0.11159713566303253,-0.31680482625961304,-0.941902756690979,0.023167446636260396,-0.0006908202817103228,0.008620484284799472,0.9996940648964768,0.24012860655784607,-0.09353414922952652,-0.046663880348205566,0.002138376235961914,0.0035871267318725586,-0.015179336071014404
2025-09-20T01:56:46Z,-0.003451129746375739,0.05084418811210813,0.016319402769612676,-0.1128995418548584,-0.3211648464202881,-0.9402695298194885,0.025432550452296716,-0.0015175374199910302,0.008113101901260864,0.9996423368005617,0.2337874174118042,-0.08507072180509567,-0.048886146396398544,0.002221435308456421,0.004234790802001953,-0.015134930610656738
2025-09-20T01:56:46Z,-0.004970991972194069,0.055169889103441144,0.015382639047144821,-0.11406578868627548,-0.32533326745033264,-0.938694417476654,0.02759965750946647,-0.0022723395824080957,0.007619743199566351,0.9995873266382722,0.2257566601037979,-0.07913285493850708,-0.04676354303956032,0.0005416348576545715,0.004758566617965698,-0.014860391616821289
2025-09-20T01:56:46Z,-0.006359071933746784,0.05926776703747175,0.01441864609807927,-0.11509682983160019,-0.3292846083641052,-0.9371895790100098,0.029651542161281172,-0.0029644462946532306,0.007111854141385218,0.9995304835715889,0.21471185982227325,-0.07362914085388184,-0.049575574696063995,-0.001028887927532196,0.0013942420482635498,-0.015825510025024414
2025-09-20T01:56:46Z,-0.0076157745901399634,0.06324326635141209,0.01337656182309235,-0.11597973108291626,-0.33312398195266724,-0.9357227683067322,0.031640886028563166,-0.0035944336731617804,0.006564451140268206,0.9994711678519499,0.21240943670272827,-0.0711633637547493,-0.056285109370946884,-0.0008975639939308167,-0.0018944740295410156,-0.01446753740310669
2025-09-20T01:56:46Z,-0.008910715977853274,0.06723500358913241,0.012117681403291945,-0.11683525890111923,-0.3369963765144348,-0.9342285394668579,0.033637202844586434,-0.0042491032338856155,0.005905574409063058,0.999407496135309,0.2155364602804184,-0.07832667231559753,-0.06998922675848007,-0.00215177983045578,-0.005206853151321411,-0.012318551540374756
2025-09-20T01:56:46Z,-0.010424811119974394,0.07135398595901891,0.010312263331840188,-0.1177411898970604,-0.341040700674057,-0.932645857334137,0.03569532854724793,-0.00502508334348434,0.00496683799557929,0.9993376348334652,0.21456387639045715,-0.08068297803401947,-0.08031199872493744,-0.002101600170135498,-0.005203455686569214,-0.012470424175262451
2025-09-20T01:56:46Z,-0.011931915077155504,0.07547571390660755,0.008512559458177513,-0.1186370700597763,-0.3450801372528076,-0.9310450553894043,0.0377532665651994,-0.005801039799819027,0.004028075607845256,0.9992620014514115,0.2135912925004959,-0.0830392837524414,-0.09063476324081421,-0.0020614713430404663,-0.005204945802688599,-0.01264035701751709
2025-09-20T01:56:46Z,-0.01343204649080094,0.07960011467587347,0.0067185015721462115,-0.11952286213636398,-0.3491145968437195,-0.9294263124465942,0.0398109778132719,-0.00657695757625472,0.003089284895480859,0.9991806503901819,0.21261872351169586,-0.08539558947086334,-0.10095752775669098,-0.0020314306020736694,-0.0052114129066467285,-0.012828290462493896
2025-09-20T01:56:46Z,-0.014881005292067538,0.08372139392286436,0.004724249303700633,-0.12030110508203506,-0.35316047072410583,-0.927795946598053,0.041864762548906975,-0.007335047637451727,0.002048618089393362,0.9990941329785218,0.2119397670030594,-0.08552422374486923,-0.10808135569095612,-0.002508513629436493,-0.00635218620300293,-0.011899590492248535
2025-09-20T01:56:46Z,-0.01641716014387396,0.08783903208955775,0.002542210158175115,-0.12110338360071182,-0.35721555352211,-0.9261376857757568,0.04391431297794085,-0.008144760380706714,0.000909439609706312,0.9990015499007394,0.2116854041814804,-0.09151352941989899,-0.11456608772277832,-0.0030069500207901,-0.006514847278594971,-0.010371685028076172
2025-09-20T01:56:46Z,-0.01804718708666119,0.0919514043040014,0.0003093416951170643,-0.12197288125753403,-0.3612635135650635,-0.9244518876075745,0.04595903693737119,-0.009006829073564605,-0.00026021333849870804,0.9989025228875805,0.2096637636423111,-0.09411643445491791,-0.11492075771093369,-0.0031414031982421875,-0.004618167877197266,-0.010806739330291748
2025-09-20T01:56:47Z,-0.019607774465736943,0.09594450576804692,-0.0018784477278293557,-0.1227855384349823,-0.3651888966560364,-0.9228005409240723,0.047942335212369167,-0.009837485093252267,-0.0014082247208714689,0.9988005994155293,0.20240014791488647,-0.08935090154409409,-0.10979468375444412,-0.0019186586141586304,-0.0027901530265808105,-0.010987997055053711
2025-09-20T01:56:47Z,-0.021074332695395753,0.0997622575641355,-0.003950653662251192,-0.123539038002491,-0.3689330220222473,-0.9212092757225037,0.04983679536874554,-0.010622330560964887,-0.0024981363456424662,0.9986977123740834,0.1917458474636078,-0.08108591288328171,-0.10249651223421097,-0.0015455558896064758,-0.0011210739612579346,-0.011906623840332031
2025-09-20T01:56:47Z,-0.022363296353037857,0.10338011094575546,-0.00580853073815327,-0.124184750020504,-0.37246397137641907,-0.9197003841400146,0.05163116297531657,-0.011316479173164501,-0.003477909201124616,0.9985960328127327,0.17755126953125,-0.07284202426671982,-0.0884907990694046,-0.0018408894538879395,0.0008338689804077148,-0.012045443058013916
2025-09-20T01:56:47Z,-0.023526977000270087,0.10665996008214994,-0.007392756355229353,-0.12478948384523392,-0.375649631023407,-0.9183217883110046,0.05325723327881817,-0.011943433476227486,-0.0043178898016729035,0.9985000555188797,0.15867425501346588,-0.06166323274374008,-0.07475395500659943,-0.0017496198415756226,0.0017251074314117432,-0.012837052345275879
2025-09-20T01:56:47Z,-0.024474480827551107,0.10949461385883197,-0.008636910287206125,-0.12529034912586212,-0.3783861994743347,-0.9171293377876282,0.054662590827557526,-0.012454774503958247,-0.004981247230113637,0.9984147561221592,0.1391330063343048,-0.045775406062603,-0.05663955584168434,-0.0017556846141815186,0.0009989142417907715,-0.013626515865325928
2025-09-20T01:56:47Z,-0.025067243336882844,0.11191708888724662,-0.009590137746407114,-0.12554796040058136,-0.38071078062057495,-0.9161315560340881,0.055864311657990516,-0.012781696205005804,-0.005488140560405919,0.9983413500352747,0.11931958794593811,-0.03130058944225311,-0.04221118614077568,-0.0020633339881896973,-0.002827852964401245,-0.01293402910232544
2025-09-20T01:56:47Z,-0.025486161346116636,0.11400030045499356,-0.01021339556753026,-0.12573949992656708,-0.38268786668777466,-0.9152811169624329,0.056898958713179584,-0.013012776030221563,-0.00582390379811697,0.9982780631143136,0.10591475665569305,-0.02313964255154133,-0.027516372501850128,-0.004055425524711609,-0.0060340166091918945,-0.00921475887298584
2025-09-20T01:56:47Z,-0.025990187450889102,0.11587072136552952,-0.010599291166850013,-0.12607567012310028,-0.38444381952285767,-0.9144986867904663,0.05782850698503055,-0.013279582365898514,-0.006042705636652025,0.9982198370174576,0.09868570417165756,-0.0310734324157238,-0.019133446738123894,-0.008326232433319092,-0.01022222638130188,-0.005435049533843994
2025-09-20T01:56:47Z,-0.02655213500778356,0.11774424126005727,-0.010915365927419042,-0.12648314237594604,-0.3861941397190094,-0.9137046337127686,0.05875973124778794,-0.013573571004698448,-0.006228825130564294,0.9981603945842467,0.10078801214694977,-0.031957097351551056,-0.02014639973640442,-0.0059854090213775635,-0.015526950359344482,-0.008130133152008057
2025-09-20T01:56:47Z,-0.02705124206690107,0.11967915356017593,-0.011356748435860917,-0.12679705023765564,-0.38801199197769165,-0.912890613079071,0.05972077691820574,-0.01384033953386753,-0.006476509087892468,0.998098099177002,0.1041509136557579,-0.02520204707980156,-0.028586028143763542,-0.0030681490898132324,-0.01762327551841736,-0.01156306266784668
2025-09-20T01:56:47Z,-0.027425931441292472,0.12172291964207015,-0.01193110744453846,-0.1269586831331253,-0.38994136452674866,-0.9120456576347351,0.060735447173643764,-0.014049717037224133,-0.006787949133855916,0.9980318444553019,0.10201266407966614,-0.01374362874776125,-0.03491955250501633,-0.0007853209972381592,-0.014717936515808105,-0.014328420162200928
2025-09-20T01:56:47Z,-0.02757310007819782,0.12372707796709825,-0.012614996717913397,-0.126882404088974,-0.3918437957763672,-0.9112405180931091,0.06173020168373916,-0.014149385423879439,-0.007147090664808517,0.9979668396181155,0.09429672360420227,-0.006964252796024084,-0.03735968843102455,-0.0014578700065612793,-0.010921895503997803,-0.014413118362426758
2025-09-20T01:56:47Z,-0.027711483035181714,0.12558544958781614,-0.013330576561516493,-0.1267905831336975,-0.3936145603656769,-0.9104897975921631,0.06265189168703547,-0.014245899946449297,-0.007520886528590452,0.997905304533952,0.08346495032310486,-0.006845574360340834,-0.03835062310099602,-0.002681329846382141,-0.007779151201248169,-0.010664582252502441
2025-09-20T01:56:47Z,-0.027863816355420346,0.1272796725274846,-0.014056523158207657,-0.12671004235744476,-0.39523497223854065,-0.909798800945282,0.06349143743706594,-0.014349842431797972,-0.007899272154316222,0.9978478336758422,0.07451021671295166,-0.013957327231764793,-0.04020019993185997,-0.003388449549674988,-0.00651395320892334,-0.006634116172790527
2025-09-20T01:56:47Z,-0.02805584371258071,0.128730394024288,-0.014862046374800725,-0.12664595246315002,-0.396639883518219,-0.909196138381958,0.06420864338831794,-0.014475947351793634,-0.008317070786148387,0.9977967439772869,0.06184340640902519,-0.018297342583537102,-0.03966929763555527,-0.0031341612339019775,-0.0051653385162353516,-0.006297647953033447
2025-09-20T01:56:47Z,-0.028301361895418622,0.1298460705786359,-0.015614199774463525,-0.1266486495733261,-0.3977328836917877,-0.9087181687355042,0.06475873035527352,-0.014626417152310405,-0.00870779510763867,0.9977556859095579,0.04589436948299408,-0.017473436892032623,-0.034464031457901,-0.0026388168334960938,-0.002646714448928833,-0.006405651569366455
2025-09-20T01:56:47Z,-0.02854726689937712,0.130611726165473,-0.016204035399476027,-0.1267002522945404,-0.39848995208740234,-0.9083791971206665,0.06513527331819813,-0.014770930077453871,-0.009015262729242994,0.997726334977173,0.029421109706163406,-0.013787416741251945,-0.026094991713762283,-0.0026517361402511597,-0.0018267333507537842,-0.007751107215881348
2025-09-20T01:56:47Z,-0.02875465478289668,0.1310241165923687,-0.016648011556964933,-0.12676109373569489,-0.39891019463539124,-0.9081862568855286,0.06533676216161999,-0.014890365625988274,-0.009246345452227748,0.9977092696859429,0.012013569474220276,-0.00789685919880867,-0.01735527068376541,-0.002596750855445862,-0.002118438482284546,-0.010779917240142822
2025-09-20T01:56:47Z,-0.028758135763524692,0.13111129621221748,-0.016898631299066273,-0.12669390439987183,-0.3990146517753601,-0.908149778842926,0.06537836879213857,-0.014900615491433046,-0.009372082998850027,0.9977052358582835,-0.003742612898349762,0.0011469954624772072,-0.010232331231236458,-0.002206355333328247,-0.004523515701293945,-0.014478802680969238
2025-09-20T01:56:47Z,-0.028699963221061404,0.13087728933592202,-0.016977803144365877,-0.12662184238433838,-0.3988092243671417,-0.9082500338554382,0.06526131612599662,-0.01487330311118469,-0.009408066334395407,0.997712956032091,-0.015028425492346287,0.007812163792550564,-0.0027215536683797836,-0.003360062837600708,-0.00629878044128418,-0.014053821563720703
2025-09-20T01:56:47Z,-0.028452255240061904,0.13050761734848626,-0.016909154211806287,-0.1264200508594513,-0.3984653949737549,-0.9084290266036987,0.06507856952770329,-0.014746104675562689,-0.009363215701551658,0.9977272006778903,-0.017127497121691704,0.009966043755412102,0.0063143158331513405,-0.003738418221473694,-0.007559239864349365,-0.012609481811523438
2025-09-20T01:56:47Z,-0.0282617799696802,0.13016845092574583,-0.016688686419346305,-0.12631183862686157,-0.3981342315673828,-0.9085893034934998,0.06491187101427882,-0.014642652823886892,-0.009244734693611202,0.9977407321149058,-0.012506958097219467,0.01701091043651104,0.014506787061691284,-0.002607494592666626,-0.009525299072265625,-0.011197030544281006
2025-09-20T01:56:47Z,-0.027877011386128796,0.1299767212747571,-0.016380453110755554,-0.12604963779449463,-0.3979286253452301,-0.9087157249450684,0.06482022544618163,-0.014440002160448226,-0.009077195406899996,0.9977511645073597,-0.00271665770560503,0.02145223133265972,0.016366034746170044,-0.002492561936378479,-0.013592749834060669,-0.009110867977142334
2025-09-20T01:56:47Z,-0.02753811956763357,0.13001787617560115,-0.01603103157506869,-0.12583787739276886,-0.3979312479496002,-0.9087439775466919,0.06484478695218661,-0.014259758106206777,-0.008892165399421939,0.9977538192364814,0.006363215856254101,0.016332630068063736,0.01689974218606949,-0.003509700298309326,-0.01363721489906311,-0.00768667459487915
2025-09-20T01:56:47Z,-0.027277248548340648,0.13023172356669419,-0.01565328845594897,-0.12570296227931976,-0.3980884850025177,-0.9086937308311462,0.06495529871300669,-0.014118107811409828,-0.00869666012173315,0.9977503698208111,0.012286650016903877,0.011467410251498222,0.016880637034773827,-0.003030925989151001,-0.011784553527832031,-0.007171213626861572
2025-09-20T01:56:47Z,-0.027154252246912976,0.13054125994518476,-0.015285735987509985,-0.12568947672843933,-0.398333877325058,-0.9085880517959595,0.06511284110577209,-0.014045854630228746,-0.00851132261579752,0.9977426613082192,0.011663286946713924,0.00987978745251894,0.015902508050203323,-0.0018928349018096924,-0.010662674903869629,-0.007896602153778076
2025-09-20T01:56:47Z,-0.027099426479552106,0.13084129228925528,-0.01492093963124593,-0.12573730945587158,-0.39857086539268494,-0.9084775447845459,0.0652653068936905,-0.014007610272698706,-0.008329505757630848,0.9977348094933849,0.0099950497969985,0.008571941405534744,0.015868062153458595,-0.0005947202444076538,-0.009085804224014282,-0.008352875709533691
2025-09-20T01:56:47Z,-0.026969810584556126,0.13111593522703444,-0.01453478950300989,-0.12572336196899414,-0.39878249168395996,-0.9083865880966187,0.06540554970527948,-0.013931222268561869,-0.008134420420202347,0.9977282988208732,0.005950278136879206,0.012395667843520641,0.01738794334232807,0.0006763935089111328,-0.0096513032913208,-0.00959247350692749
2025-09-20T01:56:47Z,-0.026772630796075537,0.1312816761946834,-0.01416677226637781,-0.12564420700073242,-0.39889663457870483,-0.9083474278450012,0.0654915760385213,-0.013821333018708165,-0.007945449023487329,0.9977257502640723,0.002225225791335106,0.013592695817351341,0.016581084579229355,-2.872943878173828e-05,-0.008566409349441528,-0.009237885475158691
2025-09-20T01:56:47Z,-0.02659437795626568,0.13132065117928704,-0.013755969091087911,-0.12559540569782257,-0.39889082312583923,-0.9083566665649414,0.06551455361098828,-0.013719075019923107,-0.007734927860353152,0.9977272014984685,-0.00667831115424633,0.015615789219737053,0.021494844928383827,0.00018824636936187744,-0.006905883550643921,-0.010155260562896729
2025-09-20T01:56:47Z,-0.026285404640234378,0.13115705296028407,-0.013247669372998941,-0.12545691430568695,-0.3986905813217163,-0.908463716506958,0.06543757900702961,-0.01354781801859365,-0.0074701964770605665,0.9977366023427587,-0.01875999942421913,0.019955813884735107,0.025248052552342415,0.0010960549116134644,-0.005097180604934692,-0.010691344738006592
2025-09-20T01:56:47Z,-0.02590266065382294,0.13070636471320388,-0.012721834771867932,-0.125259131193161,-0.398226797580719,-0.9086944460868835,0.06521767668498632,-0.013338433880474006,-0.007192531722413363,0.9977558765591119,-0.029907701537013054,0.021038690581917763,0.026635851711034775,0.0011974051594734192,-0.00551992654800415,-0.010608792304992676
2025-09-20T01:56:47Z,-0.025550917863655386,0.13007863776775663,-0.01215585562973447,-0.1251022219657898,-0.39759737253189087,-0.9089916348457336,0.06490949560659277,-0.013142857812057339,-0.006894829333417058,0.9977806767644586,-0.03531605005264282,0.019890690222382545,0.02865457348525524,0.0007205456495285034,-0.006903260946273804,-0.00950002670288086
2025-09-20T01:56:47Z,-0.02533346197407521,0.12939372795563822,-0.011529589957258767,-0.12508440017700195,-0.3969094157218933,-0.9092946648597717,0.06457262104307594,-0.013012356438619045,-0.0065711327014316735,0.9978064127811637,-0.032536592334508896,0.012586874887347221,0.03681943565607071,-0.0016981512308120728,-0.005188435316085815,-0.008420884609222412
2025-09-20T01:56:47Z,-0.025180046980043138,0.1288027421010865,-0.010665943388398505,-0.12518925964832306,-0.39628279209136963,-0.9095535278320312,0.06428385100255357,-0.012906598733275543,-0.006131691265876427,0.9978292691329175,-0.025657158344984055,0.011139043606817722,0.053799062967300415,-0.0019583553075790405,-0.003244757652282715,-0.00980997085571289
2025-09-20T01:56:47Z,-0.02503999376535708,0.12836643444398915,-0.009388336780425601,-0.1254187971353531,-0.3957549035549164,-0.9097517132759094,0.0640747809799483,-0.012794809707761985,-0.005487111200763951,0.997847936225475,-0.019031167030334473,0.01983160898089409,0.073173888027668,0.0006652325391769409,-0.0022280514240264893,-0.013329744338989258
2025-09-20T01:56:47Z,-0.02469562363666697,0.12802305222853688,-0.007741854309799068,-0.12556299567222595,-0.3952735960483551,-0.9099410772323608,0.0639147692083409,-0.012569713341489883,-0.004652532067638135,0.9978653141186148,-0.014188466593623161,0.033158738166093826,0.09136070311069489,0.0013385489583015442,-0.0009212493896484375,-0.01492154598236084
2025-09-20T01:56:47Z,-0.024178185801780296,0.12776466468262374,-0.005701979304364659,-0.1256568729877472,-0.3948286771774292,-0.9101212620735168,0.06379957377768554,-0.01224608169430052,-0.003616694981850169,0.9978810127442618,-0.012162618339061737,0.040412016212940216,0.11164812743663788,0.0008292198181152344,0.0012778639793395996,-0.014116048812866211
2025-09-20T01:56:47Z,-0.023589864595683564,0.12747673484728814,-0.0031567242369702803,-0.12582501769065857,-0.39430326223373413,-0.9103257656097412,0.06367213847530062,-0.01187122243671118,-0.0023263097767436355,0.9978974303469377,-0.010771144181489944,0.05125592276453972,0.13815835118293762,0.0012539327144622803,0.004209995269775391,-0.014816641807556152
2025-09-20T01:56:47Z,-0.02281495086642983,0.1271945642154201,-2.6456646737761274e-06,-0.12598976492881775,-0.3937179148197174,-0.9105563163757324,0.06355027705259035,-0.01138425229992425,-0.0007263000883619443,0.9979133217394419,-0.009644115343689919,0.0647241622209549,0.17575177550315857,0.0022444501519203186,0.008135825395584106,-0.014387726783752441
2025-09-20T01:56:47Z,-0.021807098986708535,0.1268970564700896,0.004060834669784946,-0.12619082629680634,-0.39301997423171997,-0.9108299612998962,0.06342416720074287,-0.010752639899103474,0.0013348749520315324,0.9979277250740808,-0.006772465538233519,0.08687189221382141,0.2237558811903,0.0031194835901260376,0.011099040508270264,-0.017011523246765137
2025-09-20T01:56:47Z,-0.020419283673521093,0.12664127633725733,0.009030273904759434,-0.1262914091348648,-0.3922589421272278,-0.9111440181732178,0.06332040453372514,-0.009903207038939283,0.0038598072026732795,0.9979364878820355,-0.002414032816886902,0.10733132809400558,0.2668914198875427,0.0038288533687591553,0.007735729217529297,-0.01764458417892456
2025-09-20T01:56:47Z,-0.018803610602580904,0.12641582145183938,0.01488005641380545,-0.1264214664697647,-0.3914235830307007,-0.9114851355552673,0.06323110720847022,-0.008912702956538211,0.006830927201461094,0.9979356073373028,-0.0005423867842182517,0.12419479340314865,0.3087010085582733,0.00266893208026886,0.007578223943710327,-0.014505505561828613
2025-09-20T01:56:47Z,-0.01706093057327285,0.12613747541672266,0.021586617611134583,-0.1266651153564453,-0.39043620228767395,-0.9118747115135193,0.06311286544824887,-0.007832675780015513,0.010233638783873455,0.9979230509999497,-0.001210241811349988,0.1344621777534485,0.35622650384902954,-0.002049684524536133,0.00929233431816101,-0.012360811233520508
2025-09-20T01:56:47Z,-0.015085588460923784,0.1258280263869466,0.029287610132876018,-0.12696097791194916,-0.38929662108421326,-0.9123206734657288,0.06297422870362959,-0.006606359705199687,0.014139717993340722,0.9978929723660163,-0.00012631784193217754,0.15176068246364594,0.4020203948020935,-0.0031103044748306274,0.006329089403152466,-0.014258027076721191
2025-09-20T01:56:47Z,-0.012880084478779882,0.12563545214904057,0.037811871422165626,-0.12726108729839325,-0.38815364241600037,-0.9127658009529114,0.06288541102612841,-0.0052393954751264234,0.01846292408984297,0.9978361386605313,0.00495530292391777,0.1702992469072342,0.439532995223999,0.0007894188165664673,0.0016138255596160889,-0.015039920806884766
2025-09-20T01:56:47Z,-0.0103523131435799,0.12558722391030006,0.04685676596539319,-0.12739695608615875,-0.3870621621608734,-0.9132102131843567,0.06285531499335993,-0.0036944823281356517,0.02305503264321211,0.997749409770438,0.01071176491677761,0.18644896149635315,0.45530515909194946,0.002556942403316498,-0.005641132593154907,-0.016682088375091553
2025-09-20T01:56:47Z,-0.007711935558442523,0.12563210153584814,0.05614841090070305,-0.12748482823371887,-0.3860044777393341,-0.9136455059051514,0.06285757735090135,-0.002084729987982108,0.027772988131650148,0.997633712225568,0.014413704164326191,0.1912722885608673,0.4604138731956482,0.0005532205104827881,-0.009205251932144165,-0.014771699905395508
2025-09-20T01:56:47Z,-0.00509571914117511,0.12577270676966956,0.06551748544673978,-0.12760350108146667,-0.3850019872188568,-0.91405189037323,0.06289427930071165,-0.0004831105506214197,0.032528003384992406,0.9974897922469392,0.01656346023082733,0.18981459736824036,0.46263402700424194,-0.002779543399810791,-0.008026152849197388,-0.010428786277770996
2025-09-20T01:56:47Z,-0.002552274739025932,0.1260618251195508,0.07489212847702802,-0.12777799367904663,-0.3841113746166229,-0.9144021272659302,0.06299266100641224,0.001085434247685615,0.03728261634253071,0.9973167163090643,0.021111182868480682,0.17533911764621735,0.4644343852996826,-0.006625041365623474,-0.007852792739868164,-0.0047040581703186035
2025-09-20T01:56:48Z,-0.00033191030445083996,0.12655076679131513,0.08426102490437497,-0.12823447585105896,-0.3833811283111572,-0.9146446585655212,0.06318403739007628,0.002497782217587858,0.04202328055014791,0.9971135530948577,0.029880091547966003,0.16036105155944824,0.46197256445884705,-0.006858840584754944,-0.012103468179702759,-0.002912461757659912
2025-09-20T01:56:48Z,0.0015877270664937818,0.12735349293253462,0.09346313825942461,-0.1289106011390686,-0.38293641805648804,-0.9147359132766724,0.06352722872968304,0.0037640110575293995,0.04667033733296964,0.9968810488518494,0.04231013357639313,0.14528635144233704,0.4514724612236023,-0.006387919187545776,-0.015526384115219116,-0.00290679931640625
2025-09-20T01:56:48Z,0.0032242913638129644,0.12843513977910773,0.1024534415821089,-0.12977951765060425,-0.38275250792503357,-0.9146900177001953,0.06400680010685149,0.004892665253499087,0.05120203238501421,0.9966230130489735,0.05349285900592804,0.13316482305526733,0.4360620677471161,-0.00582575798034668,-0.017695754766464233,-0.004533827304840088
2025-09-20T01:56:48Z,0.004688800385809829,0.12966446378167248,0.11106442692850332,-0.13069671392440796,-0.38273319602012634,-0.9145674705505371,0.06455693005325738,0.005931764058112164,0.05553857214781867,0.9963496318841798,0.057857196778059006,0.12679423391819,0.4133282005786896,-0.005600526928901672,-0.018855690956115723,-0.007360279560089111
2025-09-20T01:56:48Z,0.006053503451753865,0.13099369101079786,0.11915551667396043,-0.1315608024597168,-0.38285642862319946,-0.9143919944763184,0.06515377311132753,0.006911940867123714,0.05961233037351818,0.9960690271108709,0.054478298872709274,0.11771528422832489,0.38514789938926697,-0.00631009042263031,-0.01924648880958557,-0.007870376110076904
2025-09-20T01:56:48Z,0.00717758185937501,0.13225102390672297,0.1266800337708804,-0.13248960673809052,-0.3829749524593353,-0.9142082333564758,0.06571773999136671,0.007756274146924606,0.06339559326130481,0.9957921152078688,0.04693770408630371,0.10178332030773163,0.3552273213863373,-0.007769957184791565,-0.01853346824645996,-0.005812704563140869
2025-09-20T01:56:48Z,0.008173563853789229,0.13335843446869472,0.13361053701845782,-0.13337445259094238,-0.38302478194236755,-0.9140586853027344,0.06620842831162575,0.008516468890689627,0.06687838046290184,0.995525562177196,0.04176238179206848,0.08809363842010498,0.33029747009277344,-0.007990747690200806,-0.017123311758041382,-0.0035538673400878906
2025-09-20T01:56:48Z,0.008819942840123968,0.1344640118552698,0.139979317981986,-0.1344279795885086,-0.38313978910446167,-0.9138561487197876,0.06670853705061924,0.009087339754115095,0.07006940429758107,0.9952676017065204,0.041951168328523636,0.06500992923974991,0.29982057213783264,-0.008359968662261963,-0.01886153221130371,0.0011476874351501465
2025-09-20T01:56:48Z,0.009041268606498095,0.13558000604544704,0.14561753269063799,-0.13567717373371124,-0.3833580017089844,-0.9135799407958984,0.0672298477322157,0.009425807710750472,0.07288204052399554,0.9950273383997226,0.04362296685576439,0.040502212941646576,0.2582243084907532,-0.007294327020645142,-0.023411273956298828,0.0011353492736816406
2025-09-20T01:56:48Z,0.009017870824308652,0.13673806221969767,0.15039558420521001,-0.13692569732666016,-0.38373005390167236,-0.913237452507019,0.06778408195483308,0.00961797888402211,0.07525783112896903,0.9948109841392696,0.045693155378103256,0.022226274013519287,0.21226677298545837,-0.005769073963165283,-0.024330079555511475,-0.002017974853515625
2025-09-20T01:56:48Z,0.008699294685133788,0.13788407165136754,0.15421715367423083,-0.13819639384746552,-0.384223610162735,-0.9128383994102478,0.0683478335907072,0.009632908425623789,0.07714721802696793,0.9946275281621477,0.04412360489368439,0.0009325705468654633,0.1659461259841919,-0.005495205521583557,-0.02294623851776123,-0.003333866596221924
2025-09-20T01:56:48Z,0.008122392748145883,0.13902821382951966,0.15709994329147176,-0.13946136832237244,-0.38484811782836914,-0.9123828411102295,0.06892548990963872,0.009489166913707135,0.07856027890458671,0.9944784409645746,0.04313959181308746,-0.0117955282330513,0.12203144282102585,-0.004841163754463196,-0.02142798900604248,-0.00718313455581665
2025-09-20T01:56:48Z,0.007385660878461048,0.1401547276153052,0.15914909186699824,-0.14065833389759064,-0.3855758607387543,-0.9118916988372803,0.06950515593187317,0.009237998025281491,0.07955270869792477,0.994361564606457,0.042548395693302155,-0.024679604917764664,0.0808168277144432,-0.00458429753780365,-0.020832479000091553,-0.008693814277648926
2025-09-20T01:56:48Z,0.006621098399003204,0.141269904465479,0.16041108319521147,-0.1416792869567871,-0.3864069879055023,-0.911381721496582,0.07008438868726921,0.008946180395884486,0.08015225290738551,0.9942754091686831,0.04341219738125801,-0.029525771737098694,0.04473257437348366,-0.0028592199087142944,-0.020751208066940308,-0.010550618171691895
2025-09-20T01:56:48Z,0.005882073404093841,0.14237703276450134,0.16090380127804768,-0.14248055219650269,-0.387342631816864,-0.9108594655990601,0.07066227985228657,0.00864031591687655,0.08036976468458885,0.9942196462188999,0.04474453628063202,-0.033710699528455734,0.00970236212015152,-0.0016211718320846558,-0.020809262990951538,-0.011102616786956787
2025-09-20T01:56:48Z,0.005213468393200152,0.1434483996662166,0.1607670754727144,-0.1430569440126419,-0.3883373737335205,-0.9103454351425171,0.07122230510286653,0.008345916160138247,0.08027648253416522,0.994189790069095,0.0417063906788826,-0.0330137200653553,-0.02004523202776909,-0.0008536428213119507,-0.018206119537353516,-0.012955665588378906
2025-09-20T01:56:48Z,0.0046150403467972514,0.14433150405606787,0.16015266666026484,-0.14344707131385803,-0.38923031091690063,-0.9099025726318359,0.07168779345592478,0.00806170807930127,0.07994821731611326,0.9941851432353886,0.0311976857483387,-0.030835391953587532,-0.04153694957494736,-0.0013361871242523193,-0.014502853155136108,-0.01387035846710205
2025-09-20T01:56:48Z,0.004251036023635188,0.1449611116671643,0.1591120119185338,-0.14351455867290497,-0.3899545669555664,-0.9095817804336548,0.07201942862823749,0.007868359848179149,0.07941671705843674,0.9942052684833868,0.018490023910999298,-0.02245566062629223,-0.055062226951122284,-0.0007354766130447388,-0.01011154055595398,-0.015264034271240234
2025-09-20T01:56:48Z,0.004096280474999874,0.14531905553114993,0.15786449842782962,-0.14333832263946533,-0.39046162366867065,-0.9093919992446899,0.07220836726309056,0.007760551055342525,0.07879032831387796,0.9942422353138923,0.003321480005979538,-0.014262200333178043,-0.061587993055582047,-0.0014560818672180176,-0.007513135671615601,-0.014300525188446045
2025-09-20T01:56:48Z,0.004042826352646973,0.14540921660920123,0.15658205260256702,-0.1430603563785553,-0.3907299339771271,-0.9093205332756042,0.07226024493759643,0.007691184030357517,0.07815068921170684,0.9942894416634548,-0.006303269416093826,-0.010830005630850792,-0.05991378054022789,-0.0033238381147384644,-0.005103558301925659,-0.01216745376586914
2025-09-20T01:56:48Z,0.004047399862115084,0.1453109780917167,0.15542195270426667,-0.14276032149791718,-0.39080896973609924,-0.9093337655067444,0.07221566817176392,0.00764774431393654,0.07757427489951758,0.9943382410867663,-0.008588573895394802,-0.010166768915951252,-0.05170035734772682,-0.00516645610332489,-0.00537446141242981,-0.010376691818237305
2025-09-20T01:56:48Z,0.003994658888304608,0.1451803548707956,0.15441506481316666,-0.1425512284040451,-0.39083603024482727,-0.9093549251556396,0.07215659592698069,0.007580149839078771,0.0770720030608568,0.9943821009195583,-0.005765984300523996,-0.011525344103574753,-0.04475777596235275,-0.006494894623756409,-0.006648421287536621,-0.010351181030273438
2025-09-20T01:56:48Z,0.003884383140210507,0.14511292937345605,0.1535183417684909,-0.14242252707481384,-0.39090436697006226,-0.9093456864356995,0.07213068659722181,0.007490393039488998,0.07662229574457582,0.9944194185377869,0.0014083799906075,-0.012091643176972866,-0.041122931987047195,-0.006532654166221619,-0.009751737117767334,-0.011137664318084717
2025-09-20T01:56:48Z,0.00372628296406194,0.14517792646045696,0.1526205979840233,-0.1423371434211731,-0.391092985868454,-0.9092779755592346,0.07217238214674973,0.0073818698630423755,0.07617009935580406,0.9944519421030218,0.008323421701788902,-0.011725349351763725,-0.04472466930747032,-0.004691988229751587,-0.012039810419082642,-0.011780977249145508
2025-09-20T01:56:48Z,0.0036377336638093467,0.14536392661684688,0.15161258907883104,-0.14216037094593048,-0.39140722155570984,-0.909170389175415,0.07227193038744203,0.007308474785672099,0.07566534026282315,0.9944838226767053,0.012199267745018005,-0.010428586043417454,-0.05378269404172897,-0.0039263516664505005,-0.013325661420822144,-0.012461245059967041
2025-09-20T01:56:48Z,0.0035462950163734934,0.14557007332321775,0.1504299189654166,-0.14194141328334808,-0.3917645812034607,-0.909050703048706,0.07238218324530606,0.007227979102237775,0.07507356863532255,0.9945212364130145,0.01133126299828291,-0.007392816245555878,-0.06509780138731003,-0.0031957626342773438,-0.013066112995147705,-0.01166832447052002
2025-09-20T01:56:48Z,0.0035570286613877586,0.14574888376144887,0.14900037510500252,-0.14156612753868103,-0.392132043838501,-0.9089507460594177,0.07247586055212099,0.007188205311111925,0.07436276320683076,0.9945680072737408,0.004893062636256218,-0.010182790458202362,-0.07673744857311249,-0.003699377179145813,-0.011618494987487793,-0.010232388973236084
2025-09-20T01:56:48Z,0.0035522983993156476,0.14580625872343503,0.14732737015130715,-0.1411420851945877,-0.39242348074913025,-0.9088909029960632,0.07251055571495382,0.007127326054834827,0.07353050368628346,0.9946277976840283,-0.003336510621011257,-0.007526465691626072,-0.0855589359998703,-0.004159301519393921,-0.009693741798400879,-0.010204911231994629
2025-09-20T01:56:48Z,0.003629864906721487,0.14569355662623737,0.1454789985804574,-0.1405976116657257,-0.3925846815109253,-0.9089056849479675,0.072458242311162,0.007094810289775461,0.07261426024303701,0.9946991527944973,-0.011699086055159569,-0.006186084821820259,-0.09683408588171005,-0.003857553005218506,-0.011617809534072876,-0.010999500751495361
2025-09-20T01:56:48Z,0.003770762103780746,0.14547570819640515,0.1433037235499243,-0.1399109959602356,-0.3926958739757538,-0.9089636206626892,0.07235252088121497,0.00707831664056541,0.07153781519661594,0.9947849297072343,-0.016737552359700203,-0.009053395129740238,-0.1134997084736824,-0.0036089420318603516,-0.012878656387329102,-0.009901702404022217
2025-09-20T01:56:48Z,0.003823018832092608,0.14515368046446864,0.14088897504728715,-0.13924254477024078,-0.39274507761001587,-0.9090449810028076,0.07219898153509513,0.0070056675934168445,0.07033908957454794,0.9948821168637377,-0.021043356508016586,-0.012316005304455757,-0.12140590697526932,-0.003992259502410889,-0.010693192481994629,-0.008684992790222168
2025-09-20T01:56:48Z,0.003948346285387232,0.14477630602540956,0.13841262041351848,-0.13849087059497833,-0.39275115728378296,-0.9091572165489197,0.0720155263463975,0.006965628632407809,0.06911229356581668,0.9949816776811015,-0.020167076960206032,-0.0025388849899172783,-0.12248009443283081,-0.004837527871131897,-0.010952174663543701,-0.010746419429779053
2025-09-20T01:56:48Z,0.004260608602774321,0.1444292881576825,0.1357898946001432,-0.1375306397676468,-0.39280372858047485,-0.9092802405357361,0.07184135059454434,0.007014831329033894,0.0678191770713593,0.9950829300388861,-0.020526155829429626,0.002896510064601898,-0.13675208389759064,-0.0030445903539657593,-0.014852464199066162,-0.011837124824523926
2025-09-20T01:56:48Z,0.0047451597016980405,0.1440313338277966,0.13283825596100918,-0.13632766902446747,-0.3928540349006653,-0.9094396829605103,0.07163752087713814,0.007136768412622753,0.06636842601040757,0.9951946078956121,-0.024469243362545967,0.008155183866620064,-0.1577758640050888,0.000658571720123291,-0.016499042510986328,-0.015876948833465576
2025-09-20T01:56:48Z,0.00545745723384764,0.143535496873031,0.12936214188321163,-0.13478028774261475,-0.392885684967041,-0.9096565842628479,0.07138002807572362,0.007350790534657886,0.06466461315828434,0.9953237100186237,-0.032763902097940445,0.016758441925048828,-0.18675467371940613,0.0020897984504699707,-0.017529994249343872,-0.017807841300964355
2025-09-20T01:56:48Z,0.006257709325942059,0.14282292025819637,0.1252275741995368,-0.13297972083091736,-0.39280763268470764,-0.9099552631378174,0.07101533193752474,0.007579361765236837,0.06263590586372395,0.9954778178814307,-0.04288652166724205,0.009126866236329079,-0.22270435094833374,-0.0021963268518447876,-0.01711583137512207,-0.013103604316711426
2025-09-20T01:56:48Z,0.006928670093613505,0.14197058983882252,0.12039099911678933,-0.1311112493276596,-0.39269354939460754,-0.9102755784988403,0.07058892642914573,0.007716149623242703,0.06025255579301571,0.995654160379721,-0.05078149959445,-0.007650282233953476,-0.2594548463821411,-0.004990890622138977,-0.017157018184661865,-0.005328118801116943
2025-09-20T01:56:48Z,0.007290918655454857,0.14097216344807098,0.1147388796618439,-0.12930729985237122,-0.3925503194332123,-0.9105953574180603,0.07010289491307262,0.007668573636602676,0.0574515382778876,0.9958544352418857,-0.05443644896149635,-0.03154534846544266,-0.30103227496147156,-0.007101669907569885,-0.018832921981811523,-0.001938462257385254
2025-09-20T01:56:48Z,0.00726050093623378,0.13991002431414576,0.10820845483919687,-0.12762658298015594,-0.3924575448036194,-0.9108723998069763,0.06959939542898294,0.007395970637952429,0.0541985893699142,0.9960741433910097,-0.05574629455804825,-0.05850047990679741,-0.3385971784591675,-0.008872032165527344,-0.01708245277404785,-0.0005153417587280273
2025-09-20T01:56:48Z,0.0068240418691248965,0.1388346753064884,0.10110456159988229,-0.12615950405597687,-0.39241665601730347,-0.9110943675041199,0.06910059804221085,0.006904323208668359,0.050645125097660525,0.9962993105738359,-0.05615803971886635,-0.07580611109733582,-0.36063340306282043,-0.008172303438186646,-0.013341814279556274,-0.002769768238067627
2025-09-20T01:56:48Z,0.0061270238408582325,0.13783253153152178,0.09369881635956251,-0.124844029545784,-0.3924681842327118,-0.9112533926963806,0.06864272263066927,0.006277818865961346,0.04693161467233164,0.9965169285243082,-0.05352494865655899,-0.08562567830085754,-0.3752014636993408,-0.005760848522186279,-0.01169171929359436,-0.006154537200927734
2025-09-20T01:56:48Z,0.005281248940247492,0.13694267432543888,0.08605575277509316,-0.12359471619129181,-0.3926377296447754,-0.9113506078720093,0.06824097020253961,0.005574952434164468,0.043094158935576124,0.9967220441379374,-0.05163858085870743,-0.09233283996582031,-0.38948875665664673,-0.0034995079040527344,-0.012887656688690186,-0.010685265064239502
2025-09-20T01:56:48Z,0.004361434257043626,0.13610600905242465,0.07795841616257165,-0.12228508293628693,-0.39289718866348267,-0.9114154577255249,0.06786389459473673,0.00482394345788196,0.039027222565059035,0.9969192372849556,-0.04914430156350136,-0.09474773705005646,-0.4135793149471283,-0.0018860399723052979,-0.014706224203109741,-0.013480842113494873
2025-09-20T01:56:48Z,0.0033665732900994786,0.1352960698287057,0.06940570014272153,-0.12091437727212906,-0.39321961998939514,-0.9114592671394348,0.06749739267147938,0.0040237406917669775,0.03473019629629762,0.9971065929801237,-0.04734206199645996,-0.09530632197856903,-0.4293559789657593,-0.004315927624702454,-0.011393249034881592,-0.013477802276611328
2025-09-20T01:56:48Z,0.002440359853448478,0.1344782585066427,0.06065624134884057,-0.11941955983638763,-0.39353930950164795,-0.911518394947052,0.06712061550690204,0.0032542493280542342,0.03033687354446942,0.9972781824187431,-0.03976282849907875,-0.10252014547586441,-0.4394857883453369,-0.0074578821659088135,-0.006894588470458984,-0.01085662841796875
2025-09-20T01:56:48Z,0.0015066124477523533,0.13385544270577765,0.051821941058829805,-0.11789979785680771,-0.39402633905410767,-0.9115058183670044,0.06683583230653214,0.0024840413228142035,0.025900425095234894,0.9974245827235328,-0.027936100959777832,-0.1039913222193718,-0.4374365508556366,-0.004338622093200684,-0.004953920841217041,-0.01048290729522705
2025-09-20T01:56:48Z,0.0005803905265061272,0.13350219620720033,0.042983108449410744,-0.1163627952337265,-0.3947388231754303,-0.9113950729370117,0.06667991509602704,0.0017228918130994563,0.021461394062477535,0.9975420132679033,-0.013358457945287228,-0.09519416838884354,-0.43521714210510254,-0.0008953884243965149,-0.006278127431869507,-0.012473106384277344
2025-09-20T01:56:48Z,-0.00019872142006949805,0.13339541765031115,0.03421590135551301,-0.11470188945531845,-0.39564692974090576,-0.9112118482589722,0.0666402150110264,0.0010410346004400856,0.017062458825754145,0.9976305628480304,-0.000917329452931881,-0.09121246635913849,-0.4359194338321686,-0.00026420503854751587,-0.008096277713775635,-0.011969923973083496
2025-09-20T01:56:48Z,-0.001678621463435117,0.13373062397292163,0.02522424597611233,-0.11360904574394226,-0.3969620168209076,-0.910776674747467,0.0668207275021698,5.294320004393281e-06,0.012527527813662799,0.997686263312424,0.011602021753787994,-0.11500629782676697,-0.4429037272930145,-0.001625344157218933,-0.009037762880325317,-0.009025216102600098
2025-09-20T01:56:48Z,-0.0031554941803279835,0.13407899481146993,0.01623270454065474,-0.11250337213277817,-0.3982671797275543,-0.9103440046310425,0.06699978461238093,-0.0010304484278436561,0.007992333414576417,0.9977203727902674,0.024121372029185295,-0.13880012929439545,-0.4498880207538605,-0.0029992982745170593,-0.009989172220230103,-0.006078004837036133
2025-09-20T01:56:49Z,-0.0046292075888177565,0.13444049484888487,0.007241241507542913,-0.11138493567705154,-0.3995622396469116,-0.909913957118988,0.06717738354467223,-0.002066164786715461,0.0034569566411087127,0.9977328215362784,0.036640726029872894,-0.16259396076202393,-0.4568723440170288,-0.00438603013753891,-0.010950684547424316,-0.0031281113624572754
2025-09-20T01:56:49Z,-0.006099671842073641,0.13481510721433962,-0.001750132824368235,-0.11025387793779373,-0.4008471667766571,-0.9094864726066589,0.06735352323882764,-0.0031018452675275914,-0.0010785010310994103,0.997723660551777,0.049160074442625046,-0.1863878071308136,-0.46385663747787476,-0.005785368382930756,-0.011922359466552734,-0.00017571449279785156
2025-09-20T01:56:49Z,-0.008472954305873751,0.1358680878733251,-0.011046007374967984,-0.10984769463539124,-0.402757853269577,-0.9086911082267761,0.06785682275858751,-0.0046015348811413665,-0.00579776192709959,0.9976674924109142,0.07044028490781784,-0.1985781043767929,-0.4705864191055298,-0.002277761697769165,-0.009635567665100098,-0.0064029693603515625
2025-09-20T01:56:49Z,-0.011173550739694891,0.1374280740193354,-0.02045901614932546,-0.10969197750091553,-0.40511661767959595,-0.9076608419418335,0.06859830934174627,-0.006275606416328749,-0.010588597992091709,0.997568272791754,0.08663511276245117,-0.19966484606266022,-0.4691743850708008,0.001720033586025238,-0.0057090818881988525,-0.01380908489227295
2025-09-20T01:56:49Z,-0.013824358809495656,0.13926786294906837,-0.02990702355781722,-0.10946623980998993,-0.4077070951461792,-0.9065274596214294,0.06946513471822048,-0.007934970673279135,-0.015397238600255285,0.9974338261856504,0.08803636580705643,-0.18738241493701935,-0.4707121253013611,0.005098477005958557,-0.003040820360183716,-0.019995510578155518
2025-09-20T01:56:49Z,-0.016214043158701428,0.1410476594657637,-0.03932866840945476,-0.10899793356657028,-0.4102143943309784,-0.9054521918296814,0.07029043905849808,-0.009470738051126932,-0.020184693336431445,0.9972773041887095,0.0777820572257042,-0.1754317581653595,-0.46775174140930176,0.005740806460380554,0.002124696969985962,-0.022679269313812256
2025-09-20T01:56:49Z,-0.018323781988996094,0.14255626795660514,-0.04864684240264669,-0.10829448699951172,-0.4124401807785034,-0.9045249819755554,0.07097148816579668,-0.010867814210057553,-0.024910538431652716,0.9971079290925162,0.061230480670928955,-0.16219249367713928,-0.45056477189064026,0.004207313060760498,0.010129570960998535,-0.02355349063873291
2025-09-20T01:56:49Z,-0.020135484272928206,0.1436479243277634,-0.05745778239302143,-0.10745608806610107,-0.4142182767391205,-0.9038121700286865,0.07144054157177263,-0.012098735028276872,-0.029371605004815976,0.9969387795420376,0.04630141705274582,-0.14512787759304047,-0.41676419973373413,0.003992579877376556,0.016007274389266968,-0.02322399616241455
2025-09-20T01:56:49Z,-0.021637594353329657,0.1444719372532518,-0.06557929271791266,-0.10652525722980499,-0.41567257046699524,-0.903254508972168,0.07177640593561119,-0.013150544487271806,-0.03347675723897362,0.9967719290653597,0.03721816837787628,-0.12852607667446136,-0.3910321295261383,0.004056088626384735,0.01132693886756897,-0.02030813694000244
2025-09-20T01:56:49Z,-0.022938204590355463,0.14514655262548223,-0.0733363507032144,-0.10550954937934875,-0.4169422686100006,-0.9027884006500244,0.07203674995975268,-0.014088998961443194,-0.03739210295063366,0.9966010982429684,0.03790953755378723,-0.11656340956687927,-0.3733935058116913,0.003695443272590637,0.007026046514511108,-0.019487738609313965
2025-09-20T01:56:49Z,-0.024063449445116954,0.14579322770009792,-0.08067493082394353,-0.10444802045822144,-0.41813546419143677,-0.9023599028587341,0.07228366791269639,-0.014926574755105703,-0.041092083889542816,0.996425359280702,0.03876422345638275,-0.10363782942295074,-0.3469119966030121,0.0036848336458206177,0.008290350437164307,-0.018169283866882324
2025-09-20T01:56:49Z,-0.024993494149373095,0.14630169428423373,-0.08743912356130396,-0.10336920619010925,-0.4191424548625946,-0.9020168781280518,0.07246539095666087,-0.0156450996721737,-0.044497789197460905,0.9962548639674628,0.032541193068027496,-0.08803495019674301,-0.3244328796863556,0.004440411925315857,0.007720738649368286,-0.01847374439239502
2025-09-20T01:56:49Z,-0.02566077022739567,0.14670049422715808,-0.09380505556963097,-0.10216335207223892,-0.4200061857700348,-0.9017524123191833,0.0725979570878678,-0.016217149795619328,-0.047694626760052795,0.9960881342642279,0.022229503840208054,-0.07860475778579712,-0.30587834119796753,0.0022417008876800537,0.006754279136657715,-0.015481948852539062
2025-09-20T01:56:49Z,-0.026324610304167727,0.14693651899402851,-0.0998033006815563,-0.10105716437101364,-0.42068323493003845,-0.901561439037323,0.07264970907920694,-0.016771134433966668,-0.05070699070345768,0.9959264041236666,0.010728303343057632,-0.07512100785970688,-0.28671199083328247,0.00020185858011245728,0.007078230381011963,-0.014396309852600098
2025-09-20T01:56:49Z,-0.027007986059524456,0.1469619118771899,-0.10538455416882332,-0.10008663684129715,-0.4211285412311554,-0.9014618396759033,0.07259698860921654,-0.017314706733453776,-0.053510974895996335,0.995774224708566,-0.0008786311373114586,-0.07413177937269211,-0.25950390100479126,0.00032936781644821167,0.009368658065795898,-0.013266503810882568
2025-09-20T01:56:49Z,-0.027591366663148962,0.1467544568857725,-0.11034053823360367,-0.09920436143875122,-0.4213087558746338,-0.9014751315116882,0.07243424117354852,-0.017779366257211066,-0.055998483841629976,0.9956411114590296,-0.009590907022356987,-0.06405969709157944,-0.22952522337436676,0.001483038067817688,0.008687108755111694,-0.015003561973571777
2025-09-20T01:56:49Z,-0.02817687030595966,0.14645597591556717,-0.11467130833094731,-0.09850161522626877,-0.42135462164878845,-0.9015307426452637,0.07222995494846678,-0.018219236688145173,-0.058174021685062,0.995523258866481,-0.013034002855420113,-0.05454777926206589,-0.19638791680335999,0.003961771726608276,0.005310535430908203,-0.014979362487792969
2025-09-20T01:56:49Z,-0.02856447973388378,0.1460589002057496,-0.1185195245977087,-0.09775810688734055,-0.42127174139022827,-0.9016504287719727,0.07198546877673744,-0.018539577658332845,-0.060101435899658454,0.995420523568155,-0.013857017271220684,-0.040184132754802704,-0.1852559745311737,0.00408780574798584,-0.0032770633697509766,-0.014334917068481445
2025-09-20T01:56:49Z,-0.028881747724687854,0.1456883828750702,-0.12220941042370827,-0.09699513763189316,-0.4211975336074829,-0.9017674922943115,0.07175690135003904,-0.018819157251325963,-0.06194740114235725,0.9953186096910085,-0.01196662150323391,-0.042859647423028946,-0.1742451936006546,-0.0015433356165885925,-0.005588740110397339,-0.009028136730194092
2025-09-20T01:56:49Z,-0.029352923796415867,0.14544008380072534,-0.1256673051018926,-0.09643492102622986,-0.42121392488479614,-0.9018198847770691,0.07158568621594272,-0.019170011125657794,-0.06368381257052458,0.9952146159732972,-0.005731638055294752,-0.051177866756916046,-0.17003992199897766,-0.0036477595567703247,-0.006679803133010864,-0.008864820003509521
2025-09-20T01:56:49Z,-0.02980223138988008,0.14525916773897626,-0.1289896354021466,-0.09589217603206635,-0.42127862572669983,-0.9018475413322449,0.0714490347790581,-0.019506738151721267,-0.06535209499515715,0.9951097372666085,-0.006693973671644926,-0.04575777053833008,-0.15474694967269897,0.0006329268217086792,-0.003617912530899048,-0.014088809490203857
2025-09-20T01:56:49Z,-0.030042350744420018,0.14506253125597984,-0.13208694583806843,-0.09522470086812973,-0.4213108420372009,-0.9019032120704651,0.07131286738000059,-0.019730461267998968,-0.06690067388713586,0.9950121722704608,-0.014116531237959862,-0.028055895119905472,-0.14584980905056,0.005557119846343994,-0.0025126636028289795,-0.018114328384399414
2025-09-20T01:56:49Z,-0.030089140355090593,0.14479526998958747,-0.13498911056014945,-0.09443904459476471,-0.4212634563446045,-0.9020079374313354,0.07114959339794259,-0.01984835531562821,-0.06834476937270237,0.9949233427419685,-0.023080632090568542,-0.018897294998168945,-0.13807646930217743,0.004955075681209564,0.00029799342155456543,-0.015604972839355469
2025-09-20T01:56:49Z,-0.030145138798064516,0.14432107689382287,-0.13766898173650144,-0.09372753649950027,-0.42101195454597473,-0.9021995663642883,0.07088506783621643,-0.019955519257299572,-0.06967744731888105,0.9948477377517275,-0.03536736220121384,-0.022156579419970512,-0.12183430790901184,0.0015215501189231873,0.004657745361328125,-0.009331703186035156
2025-09-20T01:56:49Z,-0.030441316646138587,0.14362166955472377,-0.13991547732111406,-0.09335949271917343,-0.42052629590034485,-0.9024642109870911,0.07050418955641907,-0.020158444540865558,-0.07080181641892776,0.9947913640079923,-0.04054845869541168,-0.03295200318098068,-0.09448708593845367,-0.0012028142809867859,0.008540421724319458,-0.005326330661773682
2025-09-20T01:56:49Z,-0.030786201574790055,0.14277754120213923,-0.14163733317781868,-0.09318766742944717,-0.4198741018772125,-0.90278559923172,0.07005453934455023,-0.020361347885946606,-0.07166605964954098,0.9947571187203216,-0.04278019815683365,-0.030715566128492355,-0.06709007918834686,0.0009664520621299744,0.007674306631088257,-0.00811070203781128
2025-09-20T01:56:49Z,-0.031054546912931563,0.14187201340274827,-0.1427681861576046,-0.09311719238758087,-0.4191272258758545,-0.9031398296356201,0.06958287434339659,-0.0205027103494046,-0.07223320887681262,0.9947462996908292,-0.03936951979994774,-0.017184924334287643,-0.042072709649801254,0.0037174150347709656,0.003987997770309448,-0.012875378131866455
2025-09-20T01:56:49Z,-0.031117370831592002,0.14099424460215323,-0.14340152202411077,-0.09300357103347778,-0.41837286949157715,-0.9035012722015381,0.06913745487971566,-0.020525112318271064,-0.07254582248888342,0.99475414845826,-0.0369805209338665,-0.0015616249293088913,-0.01869831793010235,0.0041689202189445496,0.0015456676483154297,-0.016012370586395264
2025-09-20T01:56:49Z,-0.030962894427147076,0.14020099699952093,-0.14351184478126988,-0.09284257888793945,-0.4176611304283142,-0.9038470387458801,0.0687473271756476,-0.02042416452578136,-0.07259124995599692,0.9947798454355034,-0.031059617176651955,0.011041908524930477,0.008276654407382011,0.0029626861214637756,0.001447051763534546,-0.016899406909942627
2025-09-20T01:56:49Z,-0.03077320165090132,0.1394515809095647,-0.14305652784176867,-0.09281143546104431,-0.41695255041122437,-0.9041773080825806,0.06838601802472606,-0.020287851596684395,-0.07235439213928346,0.9948247750100558,-0.029215499758720398,0.017617063596844673,0.036689553409814835,0.002231307327747345,0.0018646419048309326,-0.015779852867126465
2025-09-20T01:56:49Z,-0.03045074588282339,0.1387631674617169,-0.14207573421260564,-0.09281009435653687,-0.4162651002407074,-0.9044941067695618,0.06806505003651997,-0.02006990727522246,-0.07185197898537626,0.9948876234930454,-0.026236457750201225,0.02217160351574421,0.06228804588317871,0.0005195066332817078,0.0017165541648864746,-0.015396177768707275
2025-09-20T01:56:49Z,-0.030045159275083968,0.13817224733689398,-0.1405664676007452,-0.0928836464881897,-0.4156312942504883,-0.904778003692627,0.06780058150975789,-0.019796379393460663,-0.07108439480637112,0.994966284521765,-0.021924443542957306,0.027092622593045235,0.08432566374540329,0.0009317174553871155,3.9577484130859375e-05,-0.014513969421386719
2025-09-20T01:56:49Z,-0.029546453481056948,0.13769521920866226,-0.13868182350404462,-0.09297879040241241,-0.415075421333313,-0.9050233960151672,0.06759933016198275,-0.019468123908175,-0.0701275046595678,0.995054337132779,-0.011570548638701439,0.037537164986133575,0.09905622899532318,0.0027921274304389954,-0.0031449198722839355,-0.014255344867706299
2025-09-20T01:56:49Z,-0.028960241922255794,0.1374635871174709,-0.1365915087346818,-0.0930502638220787,-0.4147275388240814,-0.905175507068634,0.06752461864412952,-0.019098013679754014,-0.06906652888992303,0.9951407911070596,-0.0007600113749504089,0.046380143612623215,0.10500940680503845,0.002885580062866211,-0.006502926349639893,-0.013860225677490234
2025-09-20T01:56:49Z,-0.02831776129291476,0.13739598508111528,-0.13434302730960573,-0.09311375021934509,-0.4145166873931885,-0.9052655696868896,0.06753422457524687,-0.018700151192036895,-0.06792568238020252,0.995226250118747,0.007984975352883339,0.04771888256072998,0.11655217409133911,0.0013822764158248901,-0.004025131464004517,-0.011631906032562256
2025-09-20T01:56:49Z,-0.027660056950294096,0.13749670009273113,-0.13189493980839542,-0.09321825951337814,-0.4144437313079834,-0.9052882194519043,0.06762912112841975,-0.018293422984371328,-0.06668567269384959,0.9953112780135245,0.014355316758155823,0.04844866320490837,0.12221356481313705,0.0019502416253089905,-0.005388617515563965,-0.010676920413970947
2025-09-20T01:56:49Z,-0.026987962122461392,0.1377105227563453,-0.12938749825047932,-0.09332505613565445,-0.41446763277053833,-0.905266284942627,0.0677804205212304,-0.01788091535263474,-0.06541600042332864,0.9953927472204778,0.01730094850063324,0.04655039682984352,0.12420075386762619,0.0013989061117172241,-0.005226641893386841,-0.010096073150634766
2025-09-20T01:56:49Z,-0.02636418579789051,0.1379609768497413,-0.12690248595085452,-0.09346842765808105,-0.41452449560165405,-0.9052254557609558,0.0679472741826329,-0.01749401451388281,-0.06415911592072265,0.9954700408308371,0.015474759042263031,0.0428587980568409,0.11781804263591766,0.001250937581062317,-0.0067420899868011475,-0.008420765399932861
2025-09-20T01:56:49Z,-0.02591906160954796,0.13810730542127006,-0.12462052538298374,-0.09371625632047653,-0.41449928283691406,-0.9052113890647888,0.0680540620473766,-0.017199385753109687,-0.06300876441333447,0.995541347620535,0.008082836866378784,0.03351563587784767,0.10552249848842621,-0.0005894824862480164,-0.007829993963241577,-0.009502887725830078
2025-09-20T01:56:49Z,-0.02556432504536855,0.13816744960964922,-0.12259438834803504,-0.09397342056035995,-0.41441234946250916,-0.9052245020866394,0.0681123902993401,-0.016955655674572318,-0.06198836141913562,0.9956055970118628,0.0031998641788959503,0.023786531761288643,0.09276904910802841,-0.0012125074863433838,-0.00768008828163147,-0.009330570697784424
2025-09-20T01:56:49Z,-0.025434431765678372,0.13820835548254334,-0.12080981805108339,-0.09436506032943726,-0.4143238663673401,-0.9052242636680603,0.06815182671887512,-0.016831422060882506,-0.061095721439104564,0.9956601851570634,0.001249329885467887,0.012548491358757019,0.0815514326095581,-0.0008209794759750366,-0.007264971733093262,-0.008584916591644287
2025-09-20T01:56:49Z,-0.025407277513815562,0.1382474641821891,-0.11921691042563864,-0.09479480236768723,-0.41424649953842163,-0.905214786529541,0.06818550072936973,-0.01676476260466507,-0.06030194516437328,0.9957074098875175,0.000946245389059186,0.011173666454851627,0.07836657762527466,0.0018136724829673767,-0.005845129489898682,-0.011146366596221924
2025-09-20T01:56:49Z,-0.025362343873121876,0.1382843265388011,-0.11763842010852661,-0.0952041894197464,-0.4141673743724823,-0.9052079916000366,0.06821840138903783,-0.016689634967313335,-0.05951469339328827,0.9957538070007854,0.0015184471849352121,0.01685216650366783,0.07364040613174438,0.0034697875380516052,-0.006961822509765625,-0.013187229633331299
2025-09-20T01:56:49Z,-0.025171345499331567,0.13832513829144333,-0.1162176509111479,-0.09543613344430923,-0.4141024649143219,-0.9052132964134216,0.06825618291099177,-0.01654723789312942,-0.05880097223382143,0.9957959242269013,0.0012237636838108301,0.020005041733384132,0.06495463103055954,0.0029473528265953064,-0.008646607398986816,-0.013601601123809814
2025-09-20T01:56:49Z,-0.02502251802411521,0.13837285361738252,-0.11500584136240379,-0.09564647078514099,-0.4140583872795105,-0.9052112698554993,0.06829428761084752,-0.016433121679479353,-0.05819272631664536,0.9958309304116273,0.003174214158207178,0.005998050794005394,0.057664304971694946,-0.0006448552012443542,-0.0069734156131744385,-0.00857079029083252
2025-09-20T01:56:49Z,-0.025212825363950864,0.13848600536806663,-0.1138704996340649,-0.09614121168851852,-0.41407880187034607,-0.9051494598388672,0.06835447069145274,-0.016492273318147045,-0.057634401168280266,0.995858263658254,0.005468607880175114,-0.01107785478234291,0.0527796596288681,-0.00417974591255188,-0.005098283290863037,-0.00786745548248291
2025-09-20T01:56:49Z,-0.025566236931448202,0.13861647636565166,-0.1127193489396751,-0.09678778797388077,-0.41411343216896057,-0.9050647616386414,0.06841884014357055,-0.016632514452760903,-0.05707385453283169,0.9958838134959406,0.011872785165905952,-0.018324077129364014,0.06034848093986511,-0.0029401108622550964,-0.003265082836151123,-0.009531855583190918
2025-09-20T01:56:49Z,-0.025969976061999328,0.1388717100929098,-0.1114083367667807,-0.09752395004034042,-0.41424912214279175,-0.9049236178398132,0.06854544742870138,-0.016795681314759194,-0.056436006975232565,0.9959086860686507,0.0167064368724823,-0.011368355713784695,0.07187804579734802,-1.780688762664795e-05,-0.0033684074878692627,-0.013885974884033203
2025-09-20T01:56:49Z,-0.026245229901604862,0.13925308528723787,-0.10994902725641313,-0.09818451851606369,-0.4144878685474396,-0.9047428369522095,0.06873994363269427,-0.016893007543251556,-0.05572051697990024,0.9959340045190478,0.017195986583828926,0.004338099621236324,0.06577102094888687,0.002077929675579071,-0.005415230989456177,-0.01788020133972168
2025-09-20T01:56:49Z,-0.02624012239931953,0.13961235199969776,-0.1085962688103297,-0.0985611230134964,-0.4147137701511383,-0.9045983552932739,0.06893042151661728,-0.0168535266570484,-0.05504836849934825,0.9959588785732989,0.01495252177119255,0.01116199977695942,0.06335064768791199,0.00044414401054382324,-0.00388258695602417,-0.015499353408813477
2025-09-20T01:56:50Z,-0.026201982019333468,0.13987118132821133,-0.10729103012545281,-0.09889528900384903,-0.414851576089859,-0.9044986963272095,0.06907135172829078,-0.01679634743465702,-0.05439826448453594,0.995985798991993,0.015065841376781464,0.01283609215170145,0.06498077511787415,-0.0017179027199745178,-0.0024265944957733154,-0.011169254779815674
2025-09-20T01:56:50Z,-0.026254281662415477,0.14012979545713977,-0.10590258357488473,-0.09933479875326157,-0.4149824380874634,-0.9043905138969421,0.06921039705465787,-0.016781146582446855,-0.053709834506140926,0.996013746936941,0.016347113996744156,0.006929435767233372,0.06780298054218292,-0.0025988295674324036,-0.003992527723312378,-0.010077893733978271
2025-09-20T01:56:50Z,-0.02615285296929541,0.14038984502699767,-0.10452419105806039,-0.09963226318359375,-0.4151148200035095,-0.9042969942092896,0.06935415893362593,-0.01668958520628651,-0.053021080417580795,0.9960421787100001,0.019028285518288612,0.010033903643488884,0.06833964586257935,-0.00044733285903930664,-0.007176816463470459,-0.011697947978973389
2025-09-20T01:56:50Z,-0.026079998055952253,0.14074492975426023,-0.10313486649600295,-0.09995752573013306,-0.41533195972442627,-0.9041613936424255,0.06954450307599706,-0.01661408412557744,-0.052328290743686084,0.9960668193757914,0.020204244181513786,0.011899253353476524,0.06759046018123627,-0.001270286738872528,-0.007009267807006836,-0.00941920280456543
2025-09-20T01:56:50Z,-0.026179217675785415,0.14109168212814918,-0.10168558839875955,-0.10045533627271652,-0.41553643345832825,-0.9040122628211975,0.06972667963745713,-0.01662173060750583,-0.05161157921707898,0.9960913496402205,0.021071702241897583,0.0037012090906500816,0.07581321895122528,-0.003981642425060272,-0.0037145018577575684,-0.00635141134262085
2025-09-20T01:56:50Z,-0.026295984939634583,0.14149263160280962,-0.1000157820668405,-0.1010308712720871,-0.4157724976539612,-0.9038395881652832,0.06993728498099493,-0.016631477230412663,-0.050785911737870344,0.9961188578165957,0.026024961844086647,0.008465494960546494,0.08595746010541916,-0.0035784468054771423,-0.006205320358276367,-0.011009931564331055
2025-09-20T01:56:50Z,-0.026240802354329778,0.1419715967557176,-0.09823966665204326,-0.10148008912801743,-0.41607022285461426,-0.9036522507667542,0.07019198894737938,-0.01655338318461166,-0.049901649319734405,0.9961469154898169,0.02453085221350193,0.024605875834822655,0.08597996830940247,0.0010309293866157532,-0.008839011192321777,-0.015670418739318848
2025-09-20T01:56:50Z,-0.025819487792137833,0.14234531883023385,-0.09641588011588716,-0.10161294788122177,-0.416267991065979,-0.9035462141036987,0.07040353878237732,-0.016288323095948853,-0.04898022163080415,0.9961820956225464,0.015351947396993637,0.0381498746573925,0.08977903425693512,0.0026975050568580627,-0.006554275751113892,-0.016749858856201172
2025-09-20T01:56:50Z,-0.025241462441693653,0.14249557500796095,-0.09448496983634895,-0.10163680464029312,-0.4162540137767792,-0.9035499691963196,0.07050795899627081,-0.015935892136979598,-0.04799876861880267,0.9962281666014818,0.005481543019413948,0.04750760644674301,0.09815143793821335,0.0016152486205101013,-0.00275498628616333,-0.015338540077209473
2025-09-20T01:56:50Z,-0.024736144982906626,0.1425137432593833,-0.09231856408685353,-0.10179419815540314,-0.4161008298397064,-0.9036028385162354,0.07054608367291587,-0.015608199382887312,-0.04690188551820816,0.9962828880729387,0.0003983895294368267,0.0403352752327919,0.11327941715717316,-0.001686587929725647,-0.000619739294052124,-0.009499013423919678
2025-09-20T01:56:50Z,-0.024352937179704638,0.14248886587703868,-0.08988400955703671,-0.10213793069124222,-0.4158860743045807,-0.9036628603935242,0.07056139025271749,-0.015330864440240384,-0.04567546613931174,0.9963430811414559,0.0003214736352674663,0.03263958543539047,0.12504635751247406,-0.0018841475248336792,-0.00016003847122192383,-0.007739067077636719
2025-09-20T01:56:50Z,-0.023985588988564645,0.1423836987495793,-0.08724802434093201,-0.10255330055952072,-0.4155808091163635,-0.9037562608718872,0.07053728345423994,-0.015052595768541545,-0.04434882372735619,0.9964089619087453,-0.0009379326947964728,0.03453719615936279,0.13423997163772583,0.0004264563322067261,-0.002344846725463867,-0.00871729850769043
2025-09-20T01:56:50Z,-0.023557512576319786,0.1422236201933671,-0.08449066334206155,-0.10294803231954575,-0.41521403193473816,-0.9038799405097961,0.07048740403583624,-0.014738745998785956,-0.04295925039119409,0.9964780452068284,-0.006926901172846556,0.040900714695453644,0.1382138431072235,0.0008116140961647034,-0.0037866830825805664,-0.011195480823516846
2025-09-20T01:56:50Z,-0.023056491052786898,0.14185219057316875,-0.08160470204116677,-0.10331448167562485,-0.4146431088447571,-0.904100239276886,0.07033390900836602,-0.014379969645336464,-0.04150204506784084,0.9965559191155416,-0.020718639716506004,0.0522603914141655,0.14421066641807556,0.0004315003752708435,-0.0018890202045440674,-0.014094948768615723
2025-09-20T01:56:50Z,-0.022307490328196962,0.14116714257999205,-0.07862020904421106,-0.10348650813102722,-0.41377735137939453,-0.9044771194458008,0.07002887499639007,-0.013888606235651902,-0.03998568339610309,0.9966463960314917,-0.04139479249715805,0.06252110749483109,0.15027369558811188,-0.0011804625391960144,-0.002193152904510498,-0.015328049659729004
2025-09-20T01:56:50Z,-0.021376864597452968,0.14004224658351772,-0.0755232284127039,-0.10352853685617447,-0.4125005602836609,-0.9050553441047668,0.06950753524021078,-0.013295610202581645,-0.038405238268171195,0.9967531227234482,-0.06535840034484863,0.06968200951814651,0.15476715564727783,-0.0009892135858535767,-0.002238154411315918,-0.017609775066375732
2025-09-20T01:56:50Z,-0.020312065830203313,0.13837599215221438,-0.07222249663711112,-0.10350915044546127,-0.41071194410324097,-0.9058706164360046,0.0687183970490969,-0.012620757041009529,-0.03671681262857319,0.99688024406181,-0.09385620802640915,0.07988137751817703,0.1728789210319519,-0.0003064945340156555,0.003342926502227783,-0.017364442348480225
2025-09-20T01:56:50Z,-0.0189090752419954,0.13614361496651126,-0.06859818080311399,-0.10327596962451935,-0.4083770215511322,-0.9069522023200989,0.0676527478252187,-0.01175939099839578,-0.03485412212222423,0.9970304989634048,-0.1220000684261322,0.10744249820709229,0.1930776685476303,0.002180345356464386,0.0025712251663208008,-0.020947277545928955
2025-09-20T01:56:50Z,-0.017104673523832305,0.133405994354744,-0.06461845772240309,-0.1027776300907135,-0.4055458605289459,-0.908278226852417,0.06634067499373483,-0.010681833141200485,-0.032800334288560745,0.9972004580151762,-0.14769966900348663,0.13245978951454163,0.20250463485717773,0.0023177415132522583,-0.001858532428741455,-0.01991140842437744
2025-09-20T01:56:50Z,-0.014727132929949571,0.1301631574358393,-0.060624833927423,-0.10175888985395432,-0.402245432138443,-0.9098591804504395,0.06478131405502384,-0.009315569073663682,-0.03072146510837161,0.9973828689187786,-0.1689089983701706,0.15268056094646454,0.19947156310081482,0.003164432942867279,-0.006931811571121216,-0.01675361394882202
2025-09-20T01:56:50Z,-0.012026156533554837,0.1264745899664974,-0.05667418883583348,-0.10042696446180344,-0.39853304624557495,-0.9116390943527222,0.06299861922444831,-0.0077891098088500674,-0.028656002810731,0.9975716458134333,-0.19540783762931824,0.16713356971740723,0.19667719304561615,0.00029139965772628784,-0.007413774728775024,-0.013096630573272705
2025-09-20T01:56:50Z,-0.009215214149624132,0.12228273309994922,-0.05269653972294199,-0.09899356216192245,-0.3943479657173157,-0.9136136770248413,0.06096026554288798,-0.006207147918136753,-0.02657715774297724,0.9977669287635794,-0.21902978420257568,0.16224421560764313,0.20147596299648285,-0.004064537584781647,-0.005606234073638916,-0.009465694427490234
2025-09-20T01:56:50Z,-0.006494558600192021,0.11776680219592967,-0.04864816931456158,-0.09765154868364334,-0.3898477852344513,-0.915687084197998,0.05875282281621393,-0.004671995858563945,-0.0244704508292598,0.9979615892730542,-0.2390567809343338,0.15927329659461975,0.2124440222978592,-0.005854301154613495,-0.003003358840942383,-0.007662475109100342
2025-09-20T01:56:50Z,-0.0040190339919360905,0.11296124550751138,-0.04430824450407589,-0.09660419076681137,-0.38504189252853394,-0.917829155921936,0.05639219097206084,-0.0032563279399436657,-0.022230353237596513,0.9981557965981537,-0.25672248005867004,0.1476236879825592,0.2153814136981964,-0.004812195897102356,-0.003459721803665161,-0.010066747665405273
2025-09-20T01:56:50Z,-0.0015138860851128468,0.10768258686423492,-0.03958950514558508,-0.09562361240386963,-0.37975063920021057,-0.9201334714889526,0.05378976875573241,-0.0018208886652410965,-0.01980550028115757,0.9983541151675768,-0.292339563369751,0.15784119069576263,0.2483394294977188,0.0012248829007148743,0.007758885622024536,-0.018547117710113525
2025-09-20T01:56:50Z,0.0013429414525962223,0.10175959834764278,-0.03439613319527572,-0.09443731606006622,-0.37380263209342957,-0.9226880073547363,0.050861854498301384,-0.00020411100547241935,-0.0171408172487852,0.9985584739305271,-0.32883960008621216,0.19466117024421692,0.2625640332698822,0.007820367813110352,0.0021222829818725586,-0.026297569274902344
2025-09-20T01:56:50Z,0.005055712986605594,0.09514923053960854,-0.029207068461565025,-0.09244034439325333,-0.36719810962677,-0.9255378842353821,0.04758832554718437,0.0018302558757640668,-0.01446624382745252,0.9987604941275288,-0.3535080552101135,0.2322167307138443,0.2505291998386383,0.00827404111623764,-0.010587245225906372,-0.02263510227203369
2025-09-20T01:56:50Z,0.00918452762774688,0.08826487559086896,-0.024350731468340974,-0.08994196355342865,-0.3603479564189911,-0.9284717440605164,0.04417023759763343,0.0040503012338965185,-0.011960496574764575,0.9989441408828205,-0.3596024513244629,0.2278648167848587,0.22086098790168762,-0.000380784273147583,-0.019553422927856445,-0.009105980396270752
2025-09-20T01:56:50Z,0.012971585357459407,0.08107602522119663,-0.01988342253306416,-0.08762853592634201,-0.3532291054725647,-0.9314239025115967,0.04058848273787488,0.006077207077291086,-0.009670337172028554,0.9991106231005659,-0.3770831525325775,0.19932395219802856,0.21063753962516785,-0.00840718299150467,-0.010938853025436401,-0.0014818906784057617
2025-09-20T01:56:50Z,0.016569294055457658,0.07354611408355728,-0.015593650689194332,-0.08541887253522873,-0.3457856774330139,-0.9344174265861511,0.03682694168962745,0.007992064495026131,-0.007486637942690129,0.999261597923006,-0.4003244936466217,0.18822894990444183,0.20114311575889587,-0.005977310240268707,-0.009132742881774902,-0.006128668785095215
2025-09-20T01:56:50Z,0.01988261767687632,0.06566430625623822,-0.011662901138934834,-0.08335333317518234,-0.33802443742752075,-0.9374389052391052,0.032882016377559935,0.009744205027376475,-0.0055016620885258785,0.9993965356196469,-0.4249212443828583,0.17976245284080505,0.1806766390800476,-0.0031984075903892517,-0.009935081005096436,-0.009884119033813477
2025-09-20T01:56:50Z,0.023212839790262552,0.057569864232378413,-0.007849153748016138,-0.08121888339519501,-0.3300500512123108,-0.9404628872871399,0.028824328674908275,0.01148831736464513,-0.003588643124170164,0.9995119845347664,-0.4395240843296051,0.1846635341644287,0.17219114303588867,0.0017144456505775452,-0.010798156261444092,-0.009445548057556152
2025-09-20T01:56:50Z,0.026601535250439557,0.049302939991915526,-0.004540167449541014,-0.07887010276317596,-0.3219398260116577,-0.9434692859649658,0.02467691407817205,0.013240350306037605,-0.0019413516017756458,0.9996058768629591,-0.44082486629486084,0.18040525913238525,0.12946176528930664,0.0017355456948280334,-0.0270613431930542,-0.008842527866363525
2025-09-20T01:56:50Z,0.029914823861417035,0.04114190212867277,-0.0020430532422635256,-0.07635222375392914,-0.31398916244506836,-0.9463514685630798,0.020582464433811946,0.014932672128380446,-0.000713541215201132,0.9996763721358701,-0.4238383173942566,0.17540591955184937,0.09252980351448059,-0.003077857196331024,-0.03199586272239685,-0.004057645797729492
2025-09-20T01:56:50Z,0.032577052650278646,0.0333595887341105,-0.0003151975196089208,-0.07422827184200287,-0.3064548671245575,-0.9489865899085999,0.016679376764047994,0.016282913862955533,0.00011410880095699689,0.9997281692619371,-0.408836305141449,0.11807695776224136,0.05525420233607292,-0.013538993895053864,-0.02458450198173523,0.00324934720993042
2025-09-20T01:56:50Z,0.034614145361617735,0.025710073365996077,0.0008907480733360534,-0.07254569232463837,-0.29908210039138794,-0.9514657258987427,0.01284505104197289,0.017310503956232362,0.000667736494686386,0.9997672737305217,-0.40766870975494385,0.10223366320133209,0.047281794250011444,-0.006791949272155762,-0.010016381740570068,-0.005013406276702881
2025-09-20T01:56:50Z,0.036549205655613815,0.018328236872581994,0.0020943967607386068,-0.070954829454422,-0.2919461131095886,-0.9537991881370544,0.009143321005202432,0.018282405847801265,0.0012144384543569104,0.9997901755878844,-0.39436331391334534,0.10255036503076553,0.04171184450387955,0.0006557181477546692,-0.010843634605407715,-0.007341325283050537
2025-09-20T01:56:50Z,0.03840029995948504,0.011524462891098031,0.003011191280922912,-0.06936509162187576,-0.28537487983703613,-0.9559025168418884,0.005732226267780798,0.019207306168419792,0.0016159209757953146,0.9997976596934519,-0.3624819219112396,0.10170578956604004,0.024555863812565804,0.001591697335243225,-0.02021658420562744,-0.007667481899261475
2025-09-20T01:56:50Z,0.040124252351591505,0.005503243117528932,0.0036866679804943474,-0.06783397495746613,-0.27956265211105347,-0.9577282071113586,0.0027140814541027803,0.02006574400336655,0.001898154783512056,0.9997930524874166,-0.3121185898780823,0.09163083136081696,0.011381885968148708,-0.000652410089969635,-0.0254344642162323,-0.004022419452667236
2025-09-20T01:56:50Z,0.041480208420984585,0.00026764108451574775,0.003895716574505381,-0.06653241068124771,-0.27454063296318054,-0.9592710137367249,9.339564723006675e-05,0.02073884088144587,0.001950213595535401,0.9997829019545491,-0.26606515049934387,0.06360386312007904,-0.008311259560286999,-0.004867866635322571,-0.023342162370681763,-0.0026255249977111816
2025-09-20T01:56:50Z,0.04258905728380341,-0.0044206058981415535,0.0038360398252570154,-0.06539799273014069,-0.27006351947784424,-0.9606189727783203,-0.0022506361865227836,0.021288590640113316,0.0018705156002117931,0.9997690451187816,-0.24126960337162018,0.052387356758117676,-0.016015803441405296,-0.0010461211204528809,-0.012972503900527954,-0.004675507545471191
2025-09-20T01:56:50Z,0.04366705116366772,-0.008639489418305073,0.003644941604361572,-0.06426066905260086,-0.26604411005973816,-0.9618165493011475,-0.004358482258404091,0.021823681863732843,0.0017277112203032596,0.9997507693857212,-0.2243066281080246,0.06264888495206833,-0.017266450449824333,7.250159978866577e-05,-0.009359210729598999,-0.010696470737457275
2025-09-20T01:56:50Z,0.045034095662338194,-0.012426569790598222,0.003323927038430523,-0.06281271576881409,-0.26244789361953735,-0.9628996253013611,-0.006249080419056863,0.0225043576982841,0.0015216175613359062,0.9997259748004378,-0.2059342861175537,0.07447267323732376,-0.028797738254070282,0.0029251575469970703,-0.011593163013458252,-0.014072835445404053
2025-09-20T01:56:50Z,0.04655634530293087,-0.015764747180715456,0.0028645318457630096,-0.06118039786815643,-0.25929349660873413,-0.9638588428497314,-0.00791348572822221,0.023264039514630335,0.001248364417144808,0.9996971458338342,-0.17457419633865356,0.08420145511627197,-0.03176725283265114,0.004987366497516632,-0.012295067310333252,-0.014335453510284424
2025-09-20T01:56:50Z,0.04812263166768424,-0.018512649646213703,0.0022355340811839766,-0.05946407467126846,-0.2567211985588074,-0.9646544456481934,-0.009280399653571615,0.02404760751408189,0.0008947008857428839,0.9996672423312091,-0.13320428133010864,0.07973085343837738,-0.04239557683467865,0.0030668266117572784,-0.01279526948928833,-0.01225358247756958
2025-09-20T01:56:50Z,0.04947318279518606,-0.02065196272431747,0.0013943160309252336,-0.05790342018008232,-0.25475430488586426,-0.9652706384658813,-0.010339880169623429,0.024725550452369068,0.00044150857864833597,0.9996405895983449,-0.1008605808019638,0.059552863240242004,-0.05712457746267319,0.00018878281116485596,-0.008791714906692505,-0.009644627571105957
2025-09-20T01:56:50Z,0.05046492336522458,-0.022394764398258445,0.00020553136435034523,-0.05659759044647217,-0.25320395827293396,-0.9657558798789978,-0.011196177795640966,0.02522705520537721,-0.00017977519286695672,0.9996189115695775,-0.08956760913133621,0.045009516179561615,-0.06464100629091263,-0.0009106770157814026,0.0021956562995910645,-0.010248064994812012
2025-09-20T01:56:50Z,0.05136641174746852,-0.023988784157331557,-0.0008801750155187664,-0.055408261716365814,-0.2517847716808319,-0.966195821762085,-0.01197884853892976,0.025683812878905424,-0.0007479240535903928,0.9995979284434566,-0.0820615217089653,0.046949200332164764,-0.048295773565769196,0.0020646192133426666,0.011866524815559387,-0.011567473411560059
2025-09-20T01:56:50Z,0.05217306993706051,-0.02523890611295007,-0.0016027834942378937,-0.0544140562415123,-0.2506576180458069,-0.9665453433990479,-0.012593920805615286,0.02609160406796808,-0.001130207078977179,0.9995794484937685,-0.05933545529842377,0.02685144916176796,-0.0330134816467762,-0.00023555010557174683,0.009310290217399597,-0.004697144031524658
2025-09-20T01:56:50Z,0.0525559203979596,-0.026010627504710254,-0.0021780775832118625,-0.05387585610151291,-0.2499750405550003,-0.9667522311210632,-0.012971839037104046,0.026286859488400628,-0.0014302747227776663,0.9995691336252783,-0.03004063293337822,0.01338302344083786,-0.023641671985387802,0.001262422651052475,0.0019056648015975952,-0.005163252353668213
2025-09-20T01:56:51Z,0.052740826747253756,-0.026334059349311812,-0.0026455715027170383,-0.05356440320611,-0.2497125118970871,-0.9668373465538025,-0.013127186653549446,0.0263824632103365,-0.0016693806467940903,0.9995641754056164,-0.006944794207811356,0.010364249348640442,-0.01877838373184204,0.0031110979616642,0.0010747015476226807,-0.010001182556152344
2025-09-20T01:56:51Z,0.05285607188942719,-0.026571853137981032,-0.002911352979383242,-0.05337681993842125,-0.24951133131980896,-0.9668996930122375,-0.013242421670320585,0.026441936436770515,-0.0018061090036367345,0.9995608419073291,0.0019057206809520721,0.006553233601152897,-0.011878405697643757,0.001614198088645935,0.00511285662651062,-0.010866522789001465
2025-09-20T01:56:51Z,0.05283639556949037,-0.026798520961951525,-0.0031552250559496076,-0.05332585424184799,-0.24931856989860535,-0.9669522047042847,-0.013352500125234007,0.026433855087334795,-0.0019308522635958037,0.9995593889296037,-0.007276367396116257,0.002747928025200963,-0.009283105842769146,0.0019432567059993744,0.009922906756401062,-0.013697028160095215
2025-09-20T01:56:51Z,0.052945900697936234,-0.02719738624820194,-0.003280597391838513,-0.0531802661716938,-0.2489476203918457,-0.9670557975769043,-0.013550077678093622,0.02648967482998372,-0.001999515728483759,0.9995551685480482,-0.020253745838999748,0.013202567584812641,0.0008302219212055206,0.003064781427383423,0.012550756335258484,-0.01681339740753174
2025-09-20T01:56:51Z,0.053299706733134264,-0.02730798777883785,-0.0031476561293731727,-0.05287318304181099,-0.248827263712883,-0.9671036005020142,-0.0136067720501573,0.026665664632749043,-0.001936944207502583,0.9995498546180374,-0.004085637629032135,0.010758133605122566,0.0005167124909348786,0.0023565106093883514,0.006213188171386719,-0.014704406261444092
2025-09-20T01:56:51Z,0.05365350826795354,-0.027418511118274858,-0.00301468556028398,-0.052566077560186386,-0.24870696663856506,-0.9671512842178345,-0.013663450473690216,0.026841643858478138,-0.001874377223434899,0.9995444834436172,0.012082470580935478,0.008313700556755066,0.00020320306066423655,0.0016482137143611908,-0.00012433528900146484,-0.012595593929290771
2025-09-20T01:56:51Z,0.054007344722137265,-0.027529031963633117,-0.0028816440470327133,-0.0522589385509491,-0.24858666956424713,-0.96719890832901,-0.013720150583461651,0.02701763052502967,-0.0018117951048044448,0.9995391075318764,0.02825058065354824,0.005869267508387566,-0.00011030639871023595,0.000939883291721344,-0.0064618587493896484,-0.010486900806427002
2025-09-20T01:56:51Z,0.05409371578491747,-0.02714605702486064,-0.002973450959396299,-0.052155330777168274,-0.2489650398492813,-0.9671071767807007,-0.01352743044269904,0.02706121165914852,-0.0018530956947751165,0.9995404968561368,0.0352696068584919,0.0027789368759840727,-0.0036961110308766365,0.0018373988568782806,-0.0018682628870010376,-0.013231813907623291
2025-09-20T01:56:51Z,0.05432612058514666,-0.026590226789298704,-0.003040425234445437,-0.051919687539339066,-0.24950717389583588,-0.9669800996780396,-0.013248517571838845,0.027177492610765956,-0.0018805975181923381,0.9995410246131607,0.038159266114234924,0.009758752770721912,-0.00016666250303387642,0.003208693116903305,0.004035159945487976,-0.01505124568939209
2025-09-20T01:56:51Z,0.05446481789442065,-0.02593577977592067,-0.0030351551222962438,-0.051795922219753265,-0.2501366436481476,-0.9668241143226624,-0.012921384926244023,0.027246394664059453,-0.001869979710294115,0.999543467294294,0.037913475185632706,0.0031785299070179462,-0.0010890043340623379,0.0015550404787063599,0.0022102445363998413,-0.01066732406616211
2025-09-20T01:56:51Z,0.05451941668519566,-0.024935531132890952,-0.0030905604212699187,-0.051741570234298706,-0.25110509991645813,-0.9665759205818176,-0.012420680580652523,0.027273440461964036,-0.0018844018307430737,0.9995490479634115,0.054744161665439606,0.0019148943247273564,-0.0008089093025773764,0.0024178139865398407,-0.004516690969467163,-0.011423766613006592
2025-09-20T01:56:51Z,0.05449024561366443,-0.023655692941637663,-0.00319337974251086,-0.05175904184579849,-0.2523472011089325,-0.9662514925003052,-0.011779673857445487,0.02725869306157563,-0.0019181886059837982,0.9995570507353444,0.06981707364320755,-0.008082701824605465,-0.0007699033594690263,0.0024604015052318573,-0.0029115378856658936,-0.009752273559570312
2025-09-20T01:56:51Z,0.05444502944627812,-0.02243754153149618,-0.003267168495014464,-0.051799226552248,-0.25352656841278076,-0.965940535068512,-0.011169903082463786,0.027235725816236605,-0.0019382343842495454,0.9995646471580922,0.06553240865468979,0.0037661567330360413,0.0009240914951078594,0.005305267870426178,0.0012873709201812744,-0.013904452323913574
2025-09-20T01:56:51Z,0.05456906823512546,-0.021369530759295895,-0.0034354543904756246,-0.051647983491420746,-0.2545710802078247,-0.9656738638877869,-0.010633711307518482,0.02729789945209747,-0.0020084758587917235,0.9995687024887323,0.048335038125514984,0.0017591954674571753,-0.008735047653317451,0.004850134253501892,0.0032474100589752197,-0.013691365718841553
2025-09-20T01:56:51Z,0.05469943377883506,-0.020699307957057198,-0.003626025377168431,-0.051479071378707886,-0.2552352547645569,-0.9655075669288635,-0.010296005646840335,0.027363555766828702,-0.0020952560212485387,0.9995702820362756,0.024853505194187164,0.013242881745100021,-0.0044989013113081455,0.005997784435749054,0.00872090458869934,-0.014993548393249512
2025-09-20T01:56:51Z,0.05491778276209454,-0.020353612187159295,-0.003752601342619808,-0.051238320767879486,-0.25558072328567505,-0.9654290080070496,-0.01012126461247935,0.027473059011489727,-0.0021548986138125,0.9995689453767455,0.01726331003010273,0.0028772270306944847,-0.003911876585334539,0.0012938380241394043,0.00518268346786499,-0.007155716419219971
2025-09-20T01:56:51Z,0.05479433218800389,-0.02000445989158059,-0.003928226394634252,-0.05131413787603378,-0.25593459606170654,-0.9653311967849731,-0.009944488720378342,0.027411953710861022,-0.0022372700327964777,0.9995722438133747,0.029737714678049088,-0.021446119993925095,-0.009624401107430458,-0.0009702257812023163,-0.0011503398418426514,-0.003989815711975098
2025-09-20T01:56:51Z,0.05427523275062564,-0.019408333255490604,-0.0042156383938540595,-0.05174450948834419,-0.2565373182296753,-0.9651482105255127,-0.009643229207906138,0.027153397050521444,-0.0023702535104277796,0.999581858280233,0.04029085487127304,-0.035712696611881256,-0.015381252393126488,0.0010689496994018555,-0.0035246610641479492,-0.006381630897521973
2025-09-20T01:56:51Z,0.05356282162368657,-0.01873889216952118,-0.004663733891813445,-0.05231812968850136,-0.2572271525859833,-0.9649336934089661,-0.009303483675798339,0.026798802590045696,-0.002581819081168324,0.9995941754581625,0.046294257044792175,-0.037317804992198944,-0.0186222605407238,0.002224534749984741,-0.0008539259433746338,-0.01071387529373169
2025-09-20T01:56:51Z,0.052839806630063046,-0.01790697628365603,-0.005055863776113489,-0.05291929095983505,-0.2580670416355133,-0.9646766185760498,-0.008883438530833737,0.026438313418952416,-0.002763464702859461,0.9996071080797739,0.05283162742853165,-0.04316087067127228,-0.017515167593955994,0.000491023063659668,0.0020826756954193115,-0.009523510932922363
2025-09-20T01:56:51Z,0.05181214087405411,-0.016800108127474584,-0.005391078081801738,-0.05383327603340149,-0.25916483998298645,-0.9643316864967346,-0.00832728634672117,0.02592480151924,-0.0029121211844719054,0.9996248976419866,0.062025152146816254,-0.04677891358733177,-0.011205017566680908,0.00030786171555519104,0.0019806325435638428,-0.00992673635482788
2025-09-20T01:56:51Z,0.050865146983805384,-0.015455979058977965,-0.0056473444824368555,-0.05469374731183052,-0.2604818642139435,-0.9639283418655396,-0.007653580057689187,0.025450787371677823,-0.00301919008291134,0.999642131427352,0.07734134793281555,-0.04843907058238983,-0.004728121217340231,0.002369444817304611,0.0005994141101837158,-0.01181405782699585
2025-09-20T01:56:51Z,0.049897529656382215,-0.013850910672483695,-0.005774927815523656,-0.055612266063690186,-0.26203545928001404,-0.96345454454422,-0.006851186985098146,0.02496546673441115,-0.003059253838711621,0.9996600902165015,0.08979170769453049,-0.0501481294631958,-0.003091348335146904,0.0024331510066986084,-0.00020205974578857422,-0.011580109596252441
2025-09-20T01:56:51Z,0.04890670260287119,-0.012168643846708078,-0.005911889428723256,-0.05655080825090408,-0.2636633813381195,-0.96295565366745,-0.0060101649279230545,0.02446833531370566,-0.0031037677821837634,0.9996776808604609,0.09205254167318344,-0.051875341683626175,0.0009341523982584476,0.0023298151791095734,0.0021417737007141113,-0.012766897678375244
2025-09-20T01:56:51Z,0.04793097203180764,-0.010437359705080772,-0.005927764120293624,-0.057507943361997604,-0.26532500982284546,-0.9624424576759338,-0.005146111743421012,0.02397822384105397,-0.0030880414331489387,0.9996944505553337,0.0915127620100975,-0.051027920097112656,0.004982405807822943,0.0025485828518867493,0.005393356084823608,-0.01220703125
2025-09-20T01:56:51Z,0.04691996840589855,-0.008777986077967143,-0.005821669619709924,-0.05853083357214928,-0.2669042944908142,-0.9619439840316772,-0.004319471703545426,0.02347028014093989,-0.0030129573338933966,0.9997106171034953,0.08878929913043976,-0.048395439982414246,0.009748939424753189,0.0032986216247081757,0.004008561372756958,-0.012552022933959961
2025-09-20T01:56:51Z,0.0460843512331184,-0.0070826600763118485,-0.0057486366944124725,-0.059375617653131485,-0.26852068305015564,-0.961442232131958,-0.003474144055725977,0.023050075271213857,-0.0029551258599708,0.9997238171727553,0.0922120213508606,-0.043835174292325974,0.011694389395415783,0.0031725093722343445,0.0008921027183532715,-0.013343870639801025
2025-09-20T01:56:51Z,0.04521983302478718,-0.005233703651194542,-0.005555526398308567,-0.06028240919113159,-0.2702709138393402,-0.9608952403068542,-0.0025533707640739466,0.022615094655114045,-0.0028362018675296996,0.999736873776858,0.10524686425924301,-0.04869143292307854,0.014512191526591778,0.0014257840812206268,-0.0019776523113250732,-0.009066343307495117
2025-09-20T01:56:51Z,0.04405289901243288,-0.0031087797742725847,-0.005386975380383574,-0.06147541478276253,-0.2722868025302887,-0.9602503180503845,-0.0014946836376349092,0.022028749211575605,-0.002727062793232692,0.9997524314972283,0.12414795905351639,-0.0626746267080307,0.016218334436416626,-0.0022372864186763763,-0.004394888877868652,-0.0070607662200927734
2025-09-20T01:56:51Z,0.042933512171745306,-0.0005972327727515544,-0.005120682317796477,-0.06265297532081604,-0.2746608853340149,-0.9594978094100952,-0.00024358867811844623,0.02146580239557722,-0.0025661583835190184,0.9997661702851786,0.1491526961326599,-0.05695536732673645,0.017256146296858788,0.001774519681930542,-0.006917893886566162,-0.011036694049835205
2025-09-20T01:56:51Z,0.041961555578937,0.0024380634354006147,-0.005066486189561026,-0.06363559514284134,-0.27755552530288696,-0.9585997462272644,0.0012719047159341385,0.02097606961325766,-0.002507106859184029,0.9997759597012104,0.16701990365982056,-0.04804706946015358,0.009486522525548935,0.004440572112798691,-0.006732255220413208,-0.015297532081604004
2025-09-20T01:56:51Z,0.04113403253131533,0.0056662423385042925,-0.005058049344959392,-0.06446821987628937,-0.28063639998435974,-0.9576466083526611,0.0028845197990402817,0.020558255224880275,-0.002470212561881885,0.9997814091512823,0.17042891681194305,-0.04057096689939499,0.0025813234969973564,0.005464866757392883,-0.0019699037075042725,-0.015587270259857178
2025-09-20T01:56:51Z,0.04029934857921747,0.00892156290577576,-0.0053033379331324515,-0.06523708999156952,-0.2837665379047394,-0.9566716551780701,0.004513271627638008,0.020136213979532847,-0.0025612246633262086,0.9997837528568557,0.16095691919326782,-0.04596838727593422,-0.010310112498700619,0.0037857964634895325,0.002023041248321533,-0.01675790548324585
2025-09-20T01:56:51Z,0.03945827792521495,0.012027021660258885,-0.005761710558194994,-0.06595056504011154,-0.2867729663848877,-0.9557257890701294,0.006069112049690131,0.01971010224553227,-0.002761606367787671,0.9997833868278722,0.16293807327747345,-0.04802170395851135,-0.017325421795248985,0.003211371600627899,0.002943754196166992,-0.012602627277374268
2025-09-20T01:56:51Z,0.0382518219917177,0.015291585442157548,-0.006432900534975329,-0.06695493310689926,-0.28995001316070557,-0.9546968340873718,0.007705792868986817,0.019099501118539537,-0.0030695410331072963,0.999783096348776,0.17916831374168396,-0.07300777733325958,-0.03013940341770649,-6.807595491409302e-05,0.0020464062690734863,-0.008021771907806396
2025-09-20T01:56:51Z,0.036856893001677625,0.018920993872257316,-0.007252777077920711,-0.06810002028942108,-0.29348593950271606,-0.9535346627235413,0.009525509893185525,0.018392158228142438,-0.0034512742049223103,0.9997794293062437,0.19830091297626495,-0.07986759394407272,-0.030345121398568153,-5.225092172622681e-05,0.0033168792724609375,-0.01108694076538086
2025-09-20T01:56:51Z,0.035370819512203854,0.022840833798302585,-0.007899649341149511,-0.06937986612319946,-0.2972756624221802,-0.952267587184906,0.011488140736346828,0.017638097961487784,-0.0037469812641002308,0.9997713119096068,0.20686548948287964,-0.0804985761642456,-0.022691890597343445,0.0006520450115203857,0.005252569913864136,-0.011032640933990479
2025-09-20T01:56:51Z,0.033887141374681566,0.026761606914370187,-0.00854074501508215,-0.07065588980913162,-0.3010610044002533,-0.9509837031364441,0.013450708024093032,0.01688395939007913,-0.004042665752862095,0.9997587122809913,0.21543008089065552,-0.08112955838441849,-0.015038659796118736,0.0013525411486625671,0.007183939218521118,-0.010995149612426758
2025-09-20T01:56:51Z,0.032313535664525404,0.030924614451245537,-0.008887571887846004,-0.0720975250005722,-0.30504071712493896,-0.9496062994003296,0.015531307683227186,0.016085276884006523,-0.0041928630381985075,0.9997410718465642,0.22077369689941406,-0.07757644355297089,-0.0025164643302559853,0.0017960146069526672,0.007434725761413574,-0.012155532836914062
2025-09-20T01:56:51Z,0.030947620944674903,0.03512115966740259,-0.008961348162173968,-0.07341408729553223,-0.3090187907218933,-0.9482181668281555,0.017626720986369727,0.015391984780283982,-0.004207730927532133,0.9997171481844221,0.22515733540058136,-0.06995552778244019,0.01431210059672594,0.0021350905299186707,0.006106197834014893,-0.010946512222290039
2025-09-20T01:56:51Z,0.029379428074753043,0.03942061397497356,-0.008646736309373229,-0.07502690702676773,-0.31304872035980225,-0.9467689394950867,0.01977021702919067,0.014600997204083033,-0.004032542096296602,0.9996896630530161,0.23137305676937103,-0.09491134434938431,0.020139239728450775,-0.00241001695394516,0.0014171600341796875,-0.007168292999267578
2025-09-20T01:56:51Z,0.027467265663215577,0.0436759694827754,-0.008331245636207539,-0.07696085423231125,-0.31703123450279236,-0.9452874064445496,0.021891195030055266,0.013638855431329727,-0.00386434595709814,0.9996598011831792,0.22699755430221558,-0.09971444308757782,0.024340035393834114,-0.0013982802629470825,0.002780228853225708,-0.010741114616394043
2025-09-20T01:56:51Z,0.02546770787687155,0.047763432952759595,-0.00799332009475938,-0.07897709310054779,-0.3208475410938263,-0.9438323378562927,0.023928198633398297,0.012634348139427301,-0.0036911193360928468,0.9996269404745881,0.21590404212474823,-0.09871714562177658,0.024132858961820602,0.00016773492097854614,0.0034390687942504883,-0.012612700462341309
2025-09-20T01:56:51Z,0.02366267031841567,0.05172084011303371,-0.007635525442753965,-0.0808093249797821,-0.324534147977829,-0.9424157738685608,0.025900695744716942,0.011728307719150026,-0.00351029035244996,0.9995894313658008,0.20966078341007233,-0.08899356424808502,0.02142365835607052,0.001742526888847351,-0.00022363662719726562,-0.016323626041412354
2025-09-20T01:56:51Z,0.022037445424096618,0.05564664598799308,-0.0073209776095699095,-0.08245568722486496,-0.3281904458999634,-0.9410058856010437,0.027858178802959946,0.010912335166394596,-0.0033523123921228282,0.9995465815961544,0.2048048973083496,-0.07457359880208969,0.01746577024459839,0.004230797290802002,-0.00266990065574646,-0.01929008960723877
2025-09-20T01:56:51Z,0.020742587015648482,0.05952696910022866,-0.007047510853456018,-0.08377592265605927,-0.33180326223373413,-0.9396212697029114,0.029793837344253348,0.010261593053297964,-0.003213365510262097,0.9994981159863765,0.20232395827770233,-0.05785633996129036,0.019323071464896202,0.0021972134709358215,-0.005740940570831299,-0.019687294960021973
2025-09-20T01:56:51Z,0.019670696577551192,0.06333093766831606,-0.006797397856418985,-0.08487684279680252,-0.3353419899940491,-0.9382652640342712,0.03169187712823151,0.009722605668795199,-0.003085442546074777,0.9994455090442416,0.19893476366996765,-0.05777711048722267,0.010657082311809063,-0.0015914738178253174,-0.007720351219177246,-0.014976561069488525
2025-09-20T01:56:51Z,0.018600254953478768,0.06700981741008628,-0.006768859134983363,-0.0859120711684227,-0.3387817144393921,-0.9369344115257263,0.03352846111461376,0.009181353018357232,-0.0030708422877116213,0.9993907595136043,0.19249853491783142,-0.06036136671900749,0.003964260220527649,-0.0015292614698410034,-0.0031481385231018066,-0.010381102561950684
2025-09-20T01:56:51Z,0.017526843205057017,0.07059719077141428,-0.00685289290167378,-0.0869160145521164,-0.3421430289745331,-0.9356194734573364,0.03531971535197949,0.008636881249522974,-0.00311490762951195,0.9993337793425167,0.18947936594486237,-0.06037580966949463,0.005228654481470585,-0.0009027570486068726,0.00039190053939819336,-0.010366976261138916
2025-09-20T01:56:51Z,0.01645871722020064,0.07416887961153405,-0.006677490999388078,-0.08798380941152573,-0.3454585373401642,-0.934300422668457,0.0371019384591881,0.00809977995189512,-0.003031224954819125,0.9992739614240681,0.18356341123580933,-0.0541495606303215,0.020847812294960022,0.0010884925723075867,0.0031102895736694336,-0.012364625930786133
2025-09-20T01:56:52Z,0.015570669848564235,0.07773572755128297,-0.006035203095330805,-0.08900951594114304,-0.34871697425842285,-0.9329918622970581,0.03888020342021871,0.007662087406977855,-0.00271270805407321,0.999210698200402,0.18683351576328278,-0.035373855382204056,0.05014614760875702,0.004618100821971893,0.00441250205039978,-0.01677495241165161
2025-09-20T01:56:52Z,0.015097772722906647,0.08123071942723223,-0.004323991312195244,-0.08993992209434509,-0.35179343819618225,-0.9317468404769897,0.04061925382540638,0.00745478889459909,-0.0018536367653244961,0.9991450563414704,0.1785380244255066,-0.018315784633159637,0.09067285060882568,0.00510454922914505,0.01052120327949524,-0.0181465744972229
2025-09-20T01:56:52Z,0.014618742182463427,0.08472498242976777,-0.0026106094788397594,-0.0908753052353859,-0.3548640012741089,-0.9304908514022827,0.04235819184596498,0.0072474651150568874,-0.0009945509703223228,0.9990755882910529,0.1702425330877304,-0.0012577157467603683,0.13119955360889435,0.005595974624156952,0.01662406325340271,-0.01952916383743286
2025-09-20T01:56:52Z,0.014663360249308834,0.08773921845790193,0.0004942609267529726,-0.09170227497816086,-0.3573383688926697,-0.929462194442749,0.043852553131408525,0.007335398797404019,0.0005684180664362707,0.9990108268154994,0.15166711807250977,0.023954402655363083,0.18665407598018646,0.0059655532240867615,0.02168843150138855,-0.021460354328155518
2025-09-20T01:56:52Z,0.015109524497985015,0.09042030357045719,0.004808115786077638,-0.09248512983322144,-0.3593701720237732,-0.9286009073257446,0.045175192275901666,0.007655597424259183,0.00274296223181736,0.9989458944215576,0.13737839460372925,0.04901499301195145,0.24488574266433716,0.004210993647575378,0.020917415618896484,-0.019510209560394287
2025-09-20T01:56:52Z,0.015893327369015768,0.09286224287980359,0.010255427039726546,-0.0932621955871582,-0.3610512614250183,-0.9278707504272461,0.04637166712051508,0.008175903994814484,0.00549083511728794,0.9988755681382815,0.13262900710105896,0.06395310908555984,0.2993070185184479,0.004046648740768433,0.014841556549072266,-0.01612478494644165
2025-09-20T01:56:52Z,0.01678351625182903,0.09542733111292621,0.016926018230161904,-0.09427303820848465,-0.362702876329422,-0.9271241426467896,0.047621244154819255,0.008785439044643554,0.008853210594725026,0.9987874865089035,0.14783629775047302,0.07855547964572906,0.3661012649536133,0.001940026879310608,0.014646947383880615,-0.015175402164459229
2025-09-20T01:56:52Z,0.018262275480896827,0.09845553811215557,0.025584667871092565,-0.09527856111526489,-0.36454710364341736,-0.926297664642334,0.04908515405375247,0.009748644462503649,0.01322523816024096,0.9986593479972009,0.1621170938014984,0.1095723956823349,0.4242856502532959,0.003214709460735321,0.011585414409637451,-0.017912685871124268
2025-09-20T01:56:52Z,0.01971507604499478,0.10149634153955651,0.03424145447724826,-0.09630195051431656,-0.36638012528419495,-0.9254682660102844,0.05054795593120404,0.010711633997782743,0.01759697699793488,0.998509076940945,0.176397904753685,0.14058932662010193,0.4824700355529785,0.0045072585344314575,0.008512645959854126,-0.02065300941467285
2025-09-20T01:56:52Z,0.02185794887577327,0.10490265516834432,0.04421315854735285,-0.09703861176967621,-0.36837419867515564,-0.9245993494987488,0.0521701007012579,0.012069886231370645,0.022645888410509008,0.9983083378004359,0.17695285379886627,0.1659846305847168,0.5123114585876465,0.0037737786769866943,0.0038232505321502686,-0.020485401153564453
2025-09-20T01:56:52Z,0.024320787811907676,0.10827300411528923,0.054717533239939234,-0.09761474281549454,-0.37024152278900146,-0.9237924814224243,0.05375366052546991,0.013617826861797877,0.027970996890181666,0.9980694380393749,0.16995935142040253,0.18157584965229034,0.5380706191062927,0.0013291165232658386,0.0035792887210845947,-0.015782833099365234
2025-09-20T01:56:52Z,0.026970221537259226,0.11149200701380377,0.06575959931507618,-0.09815181791782379,-0.37187114357948303,-0.9230807423591614,0.055239354911972946,0.015287950642502518,0.033570749989123086,0.9977914460313269,0.15885117650032043,0.19416354596614838,0.5678538084030151,-0.0011459439992904663,0.0050840675830841064,-0.013466238975524902
2025-09-20T01:56:52Z,0.029689724470346537,0.11467043603292244,0.07735701007203669,-0.09876047074794769,-0.37335869669914246,-0.9224151372909546,0.05668157761543876,0.01702447146665251,0.03945107045413387,0.997467189099466,0.1539010852575302,0.20233695209026337,0.5875014662742615,-0.0022958293557167053,-0.00018808245658874512,-0.009636938571929932
2025-09-20T01:56:52Z,0.032456410822057226,0.1177384062118596,0.08924026244469269,-0.09938688576221466,-0.3746699094772339,-0.9218159914016724,0.058046334996052,0.01880727961575148,0.04547599682040179,0.9971001066556234,0.14272449910640717,0.20790956914424896,0.5948995351791382,-0.0012338906526565552,-0.006566941738128662,-0.00986403226852417
2025-09-20T01:56:52Z,0.035394549023924325,0.12071558019808717,0.10095341614087758,-0.09979519993066788,-0.37588074803352356,-0.9212787747383118,0.05934364626891818,0.02068467560002707,0.05142162462372119,0.9966975318181732,0.13258814811706543,0.20681849122047424,0.5744739770889282,-0.002062775194644928,-0.015504270792007446,-0.008236408233642578
2025-09-20T01:56:52Z,0.03800969702216983,0.12355330890401553,0.11248756007173943,-0.10043798387050629,-0.3769499361515045,-0.9207719564437866,0.06056237849422102,0.022407348596483415,0.05726815397121803,0.9962682106432312,0.12456771731376648,0.19807091355323792,0.5806133151054382,-0.0067530423402786255,-0.008820980787277222,-0.0053386688232421875
2025-09-20T01:56:52Z,0.040707532886309544,0.126306633979171,0.12457061175203221,-0.1011304035782814,-0.37782999873161316,-0.9203353524208069,0.06171161373424271,0.024199957803865395,0.06339006510128682,0.9957849465928126,0.12015855312347412,0.21107123792171478,0.5980731844902039,-0.006064817309379578,-0.009698420763015747,-0.0068038105964660645
2025-09-20T01:56:52Z,0.04337257270312138,0.12909202901683664,0.13665039938398257,-0.1018352136015892,-0.37870052456855774,-0.9198997020721436,0.06285821478426665,0.02599153908926578,0.06950929065759656,0.9952595171451021,0.11574938893318176,0.22407157719135284,0.6155329942703247,-0.0053642019629478455,-0.010585397481918335,-0.008267998695373535
2025-09-20T01:56:52Z,0.04621989054221822,0.13203455921047222,0.14891601893769352,-0.10240460187196732,-0.37964898347854614,-0.9194454550743103,0.06405376333307215,0.027899768772695906,0.07572756372703256,0.9946777100962597,0.11671195179224014,0.22728972136974335,0.6139000654220581,-0.004608049988746643,-0.014675140380859375,-0.009562969207763672
2025-09-20T01:56:52Z,0.04912986564087419,0.1350962789649046,0.1613028286626568,-0.10293056070804596,-0.3806484043598175,-0.9189733862876892,0.0652827533964856,0.02986296362543632,0.08200853888842394,0.9940426112394689,0.12166876345872879,0.23008224368095398,0.6251433491706848,-0.002119220793247223,-0.014430582523345947,-0.010936498641967773
2025-09-20T01:56:52Z,0.05211095875620671,0.13802478743784302,0.17370940223022002,-0.10337401926517487,-0.38148263096809387,-0.9185776114463806,0.06641982049289655,0.03187228733868439,0.08829944009622741,0.9933657257536856,0.11258483678102493,0.24487873911857605,0.6048020720481873,0.00040622055530548096,-0.02074587345123291,-0.012437582015991211
2025-09-20T01:56:52Z,0.055203959562286346,0.1408719165697411,0.1855071997583817,-0.10354101657867432,-0.3822954297065735,-0.9182208180427551,0.06749867591263484,0.03392765901958695,0.0942897891925629,0.9926741656864625,0.10010697692632675,0.22848114371299744,0.5762593150138855,-0.006843112409114838,-0.019756287336349487,-0.004235744476318359
2025-09-20T01:56:52Z,0.05793391996157942,0.14335633972757839,0.19673015397155513,-0.10387248545885086,-0.3828311562538147,-0.9179601669311523,0.06840367732367152,0.035779183189798315,0.09997747217966314,0.9919905218562709,0.08255229145288467,0.20925062894821167,0.5430639982223511,-0.00926162302494049,-0.01899591088294983,0.0002745985984802246
2025-09-20T01:56:52Z,0.060291916994040115,0.1455923886753681,0.20733424958779648,-0.10436976701021194,-0.38320645689964294,-0.9177471399307251,0.0691977632360388,0.03742316817462553,0.10534105729068789,0.9913195007676218,0.06852854043245316,0.17974567413330078,0.5120953917503357,-0.013300478458404541,-0.020594775676727295,0.002671658992767334
2025-09-20T01:56:52Z,0.062347590942594816,0.14758704441808654,0.21737606659129577,-0.10498496890068054,-0.3834240734577179,-0.9175860285758972,0.06988411601792123,0.038894046946432836,0.11041080473237637,0.9906628351396165,0.056429967284202576,0.16950161755084991,0.4919700622558594,-0.01022288203239441,-0.019523948431015015,-0.0004984140396118164
2025-09-20T01:56:52Z,0.06417286620024461,0.14943239712425496,0.22691326356576977,-0.10567019134759903,-0.38356292247772217,-0.9174493551254272,0.07050674583872801,0.040232399654691844,0.11521875337860146,0.9900175053888844,0.04438042268157005,0.15788404643535614,0.4579402804374695,-0.00850551575422287,-0.023774683475494385,-0.001553356647491455
2025-09-20T01:56:52Z,0.06572734943741464,0.15095092565432855,0.23570147192293228,-0.10640113055706024,-0.38350582122802734,-0.9173887372016907,0.07098801290518521,0.04139800852424406,0.11964050537111107,0.989410391131524,0.03280472010374069,0.13827745616436005,0.4179139733314514,-0.00916433334350586,-0.025037825107574463,-0.0032294392585754395
2025-09-20T01:56:52Z,0.06697195728870067,0.15234204582720276,0.24398937090565587,-0.10728082805871964,-0.3833976089954376,-0.9173315167427063,0.0714270716768978,0.04238981868034908,0.12380021938605461,0.9888248717566724,0.020602203905582428,0.12530869245529175,0.4033094048500061,-0.008954562246799469,-0.017321407794952393,-0.006618976593017578
2025-09-20T01:56:52Z,0.06814445544367871,0.15346498772756526,0.25211903664417823,-0.10817056149244308,-0.38305607438087463,-0.9173697233200073,0.07173447642203988,0.04332809026336014,0.12787387109904025,0.9882434081551238,0.011726017110049725,0.12485464662313461,0.40468302369117737,-0.004761353135108948,-0.011537224054336548,-0.007421672344207764
2025-09-20T01:56:52Z,0.06942112316768809,0.15447389583073198,0.2603211615824743,-0.10896731168031693,-0.38258302211761475,-0.9174728393554688,0.07197053445424326,0.04431629886169477,0.1319835554874079,0.9876419333468195,0.007383659947663546,0.14323298633098602,0.4080011546611786,-0.0022876709699630737,-0.010856926441192627,-0.011685013771057129
2025-09-20T01:56:52Z,0.07096539387861993,0.15535885090897406,0.2684587700478114,-0.10948806256055832,-0.38199275732040405,-0.9176567196846008,0.0721216624700806,0.04542872134068595,0.13606729502521187,0.9870259977705014,-0.005331917200237513,0.14853760600090027,0.3984617292881012,-0.002156592905521393,-0.011040568351745605,-0.0088234543800354
2025-09-20T01:56:52Z,0.07273943848204749,0.15589676591612708,0.2761368739146856,-0.10966911911964417,-0.38115212321281433,-0.9179846048355103,0.07208816673678096,0.046616419222986566,0.13992607457602468,0.9864333738469567,-0.01031390018761158,0.14842171967029572,0.3773954212665558,-0.00237303227186203,-0.014536440372467041,-0.008219361305236816
2025-09-20T01:56:52Z,0.07450940562901602,0.15644803642266641,0.283814658388728,-0.10984279960393906,-0.3803100287914276,-0.9183130264282227,0.0720534288247763,0.047803337511602484,0.14378252447798237,0.9858243170817055,-0.015295883640646935,0.14830583333969116,0.3563291132450104,-0.0025968551635742188,-0.018033713102340698,-0.007614552974700928
2025-09-20T01:56:52Z,0.07615390995173361,0.15676818107787865,0.29084249462226575,-0.10996394604444504,-0.3793599307537079,-0.9186914563179016,0.07192176509456329,0.04888903155855947,0.14730899957645766,0.9852598271034655,-0.01901307888329029,0.12760977447032928,0.3374636769294739,-0.007811794523149729,-0.01821223832666874,-0.004167759791016579
2025-09-20T01:56:52Z,0.0774327819802813,0.15692326678271423,0.2972261338969738,-0.11025886237621307,-0.3783639669418335,-0.9190667271614075,0.07174556310179914,0.049759244083486996,0.15050093247316754,0.9847465890494994,-0.026264026761054993,0.12027258425951004,0.31335240602493286,-0.0047846585512161255,-0.018100887537002563,-0.007219254970550537
2025-09-20T01:56:52Z,0.0786996990100409,0.15689946260700974,0.30313793583042214,-0.11044371128082275,-0.3772813379764557,-0.9194895029067993,0.07148924784783246,0.0505928485511622,0.1534560910978646,0.9842665387210612,-0.035315945744514465,0.11168710887432098,0.2792261838912964,-0.0034530311822891235,-0.020535767078399658,-0.007751584053039551
2025-09-20T01:56:52Z,0.07993234926513865,0.15667747985718544,0.3083847676237783,-0.11049602925777435,-0.37613141536712646,-0.919954240322113,0.0711507863074296,0.05136994859333715,0.15607860913101704,0.9838383927852761,-0.04723450168967247,0.10296464711427689,0.23658545315265656,-0.003270566463470459,-0.024941623210906982,-0.006401956081390381
2025-09-20T01:56:52Z,0.08109501819701732,0.15613231314491569,0.3127246878063287,-0.11039205640554428,-0.3748469948768616,-0.9204908013343811,0.07067881129846322,0.05205452141180015,0.15824682964788456,0.9834900305285259,-0.062285419553518295,0.08833727240562439,0.1854298710823059,-0.003837592899799347,-0.02819475531578064,-0.004130721092224121
2025-09-20T01:56:52Z,0.08211650213116775,0.15516702048305192,0.31604727186836307,-0.11017163097858429,-0.37336263060569763,-0.921120285987854,0.07003553765978346,0.052599898430036575,0.15990290476158878,0.9832391297615165,-0.07922516763210297,0.07279763370752335,0.1321491152048111,-0.005789317190647125,-0.028139084577560425,-0.0034884214401245117
2025-09-20T01:56:52Z,0.08304272988826343,0.15381598345673952,0.3183165394708939,-0.10978731513023376,-0.3717179596424103,-0.9218310713768005,0.06923647378599176,0.053030080262686255,0.16103146421339273,0.9830883851149532,-0.09743259847164154,0.05883866921067238,0.07993445545434952,-0.005468994379043579,-0.027897566556930542,-0.003862619400024414
2025-09-20T01:56:52Z,0.0838493156240341,0.1520859598564095,0.31954249567573434,-0.10926548391580582,-0.36991846561431885,-0.9226166009902954,0.06828756966109048,0.05333457662872091,0.16163675181843154,0.9830389911996011,-0.11457084864377975,0.04124801605939865,0.02723691239953041,-0.006669938564300537,-0.026525020599365234,-0.004080414772033691
2025-09-20T01:56:52Z,0.08440930766037018,0.1499306452327299,0.3199671524178211,-0.10877712815999985,-0.3678776025772095,-0.9234899282455444,0.06717045953302973,0.05345666580297491,0.161832766361646,0.9830770611788294,-0.13329122960567474,0.02917436510324478,-0.001328563317656517,-0.006307929754257202,-0.01780030131340027,-0.00485384464263916
2025-09-20T01:56:52Z,0.08486585397950476,0.14743106320161065,0.3200399192285194,-0.10829412937164307,-0.3655858337879181,-0.9244562387466431,0.06590162837158027,0.05348899664212374,0.16184645075023854,0.9831588872481116,-0.15147000551223755,0.02343098446726799,-0.010129685513675213,-0.00569886714220047,-0.009928524494171143,-0.006508767604827881
2025-09-20T01:56:52Z,0.08525003729406828,0.14468550311490794,0.320124181439129,-0.10787270963191986,-0.36306512355804443,-0.925498366355896,0.06451720277626181,0.05346682818778655,0.16185887940977334,0.983249883698235,-0.1604633778333664,0.02481255494058132,-0.001921474002301693,-0.004101112484931946,-0.0058293938636779785,-0.008022189140319824
2025-09-20T01:56:52Z,0.08562260199977495,0.14188713497205746,0.3204616579780324,-0.10751708596944809,-0.3604466915130615,-0.9265626072883606,0.06310085757220897,0.0534426448253837,0.1619938058353615,0.983320878763167,-0.1586213856935501,0.024720607325434685,0.012137187644839287,-0.002928785979747772,-0.005957096815109253,-0.009420692920684814
2025-09-20T01:56:52Z,0.08606566932815288,0.13918446433120982,0.3212968118592917,-0.10721053183078766,-0.357820987701416,-0.927615225315094,0.061712491178713316,0.05347541602880463,0.1623762910162021,0.9833441343503759,-0.15225248038768768,0.030731990933418274,0.028376050293445587,-0.0031486451625823975,-0.004457056522369385,-0.010520875453948975
2025-09-20T01:56:52Z,0.08651085419210401,0.13648219068634412,0.32213286663245055,-0.10690183192491531,-0.3551926016807556,-0.9286604523658752,0.060324010410900374,0.05350808098057494,0.16275844150996796,0.9833653532689667,-0.14588357508182526,0.03674337640404701,0.04461491480469704,-0.0033706724643707275,-0.0029597580432891846,-0.011628508567810059
2025-09-20T01:56:52Z,0.087031207548116,0.13390021146447156,0.3234425035847989,-0.10663264244794846,-0.3525838851928711,-0.9296849370002747,0.05897580279177623,0.05359993456079041,0.16337674184662931,0.983339582280486,-0.1384574919939041,0.04039182513952255,0.06647919118404388,-0.004753835499286652,-1.7076730728149414e-05,-0.010311484336853027
2025-09-20T01:56:52Z,0.08761580672205624,0.1314929516304125,0.32523104276527587,-0.10641544312238693,-0.3500436842441559,-0.9306691884994507,0.057695264338115615,0.05374923205060973,0.16423426460285986,0.9832645854787037,-0.132844939827919,0.04543750360608101,0.08968944847583771,-0.002497546374797821,0.0011812150478363037,-0.012464821338653564
2025-09-20T01:56:52Z,0.08840062431847513,0.1291799820798475,0.32742645560229766,-0.10610432177782059,-0.34751126170158386,-0.9316532611846924,0.05643332615737142,0.054013682151595015,0.16529806644694917,0.9831450112653027,-0.13078148663043976,0.06424316763877869,0.10480944067239761,0.002361603081226349,-0.001758188009262085,-0.017234385013580322
2025-09-20T01:56:53Z,0.08951566343497497,0.126823901068114,0.3297933323913053,-0.10552031546831131,-0.34490400552749634,-0.9326878786087036,0.05511747650874531,0.05443897259307985,0.1664533099064222,0.9830012902106802,-0.13394995033740997,0.08017463237047195,0.10507821291685104,0.002611890435218811,-0.005990564823150635,-0.015812277793884277
2025-09-20T01:56:53Z,0.09081866856071606,0.12440965206959136,0.332087439992208,-0.10474023222923279,-0.3422534167766571,-0.9337515830993652,0.053758285818694664,0.054946924869817095,0.16757516039501266,0.9828577004339215,-0.13488847017288208,0.07842440158128738,0.09482928365468979,-0.0005627647042274475,-0.009323477745056152,-0.010212838649749756
2025-09-20T01:56:53Z,0.09201947303681537,0.12190732779337096,0.33414554320165873,-0.10399764776229858,-0.33956265449523926,-0.9348164200782776,0.05236979632041804,0.055388253440944786,0.16857484766679454,0.982736943376624,-0.13580019772052765,0.06938071548938751,0.08360791206359863,-0.00347813218832016,-0.010817348957061768,-0.006420493125915527
2025-09-20T01:56:53Z,0.09306867606654262,0.11932004335195542,0.3359308888281504,-0.10333134233951569,-0.3368416428565979,-0.9358741044998169,0.05095908413884987,0.05573837594432156,0.16943326780399484,0.9826436657031824,-0.14187994599342346,0.05701982602477074,0.06808017939329147,-0.004796318709850311,-0.010839015245437622,-0.00453561544418335
2025-09-20T01:56:53Z,0.09412871793647264,0.11659578814113072,0.33742049801716395,-0.10258317738771439,-0.3340469002723694,-0.9369574785232544,0.04948775345181263,0.056072718533124614,0.17014246103658448,0.9825773226083625,-0.15238794684410095,0.0656459629535675,0.05099689960479736,-0.0022539347410202026,-0.012728840112686157,-0.009762406349182129
2025-09-20T01:56:53Z,0.09543422732847559,0.11367511339727512,0.33844284630784993,-0.10149344801902771,-0.3311558961868286,-0.9381017088890076,0.04791155151520278,0.05649801582689761,0.17062254131938176,0.9825478362903419,-0.15991292893886566,0.07683923095464706,0.015922371298074722,-0.0009032934904098511,-0.020497500896453857,-0.012746453285217285
2025-09-20T01:56:53Z,0.09699021734855302,0.11065000067630629,0.33862274697957084,-0.09997682273387909,-0.32832464575767517,-0.9392590522766113,0.04628611510323203,0.057016591719402716,0.17069024526426946,0.9825840587890575,-0.16124416887760162,0.08129557967185974,-0.02654832974076271,-0.0005614608526229858,-0.024972259998321533,-0.01354837417602539
2025-09-20T01:56:53Z,0.0985447815189174,0.10762350780869329,0.337991919546209,-0.09827972948551178,-0.32564255595207214,-0.9403712153434753,0.04468330470252665,0.05751593708466725,0.17035676217511736,0.9826870137672259,-0.1547093689441681,0.0747949630022049,-0.06447954475879669,-0.002381846308708191,-0.024825870990753174,-0.011509716510772705
2025-09-20T01:56:53Z,0.09996231526403401,0.10475777291773719,0.33663842547000505,-0.09655435383319855,-0.3232431411743164,-0.9413772821426392,0.043192432642734827,0.05794658715758922,0.16966559145519097,0.98284796159985,-0.13633470237255096,0.05737123265862465,-0.0978296548128128,-0.005502395331859589,-0.023515254259109497,-0.007819652557373047
2025-09-20T01:56:53Z,0.10016684628202228,0.10324498783857622,0.33431388407795254,-0.09579773247241974,-0.3222791254520416,-0.9417849779129028,0.04249828345609294,0.05787329758045479,0.1684968078212967,0.9830835880908378,-0.10278243571519852,0.028106674551963806,-0.1056017205119133,-0.005704529583454132,-0.01936870813369751,-0.006717264652252197
2025-09-20T01:56:53Z,0.10036780850081584,0.10173172111777734,0.3319899810722145,-0.09504347294569016,-0.32131269574165344,-0.9421915411949158,0.041804048764817026,0.05779989759671381,0.16732769135410155,0.9833173029438049,-0.06923016905784607,-0.0011578835546970367,-0.1133737862110138,-0.005904294550418854,-0.015224575996398926,-0.00561600923538208
