timestamp,attitude_roll,attitude_pitch,attitude_yaw,gravity_x,gravity_y,gravity_z,quaternion_x,quaternion_y,quaternion_z,quaternion_w,rotation_rate_x,rotation_rate_y,rotation_rate_z,user_acceleration_x,user_acceleration_y,user_acceleration_z
2025-09-20T02:19:38Z,0.009900383495807246,0.06518556846648613,0.044424947535663555,-0.18668347597122192,-0.27905377745628357,-0.941954493522644,0.032468688774385274,0.005670091994832081,0.022359851300481667,0.9992064959813122,0.05589919164776802,0.07558658719062805,-0.10504394769668579,0.021326929330825806,-0.012474656105041504,0.012463033199310303
2025-09-20T02:19:38Z,0.011242951224148114,0.06611755524754435,0.042538820770799166,-0.1850118339061737,-0.28029826283454895,-0.9419147968292236,0.032925268218673066,0.006320052348821013,0.02144161294265992,0.9992077910301274,0.03451620042324066,0.0473066009581089,-0.07622645050287247,0.0178670734167099,-0.0005443990230560303,0.015643537044525146
2025-09-20T02:19:38Z,0.012066842586137034,0.06664733525656984,0.041273710053472946,-0.18396231532096863,-0.28104284405708313,-0.9418985247612,0.03318536758862874,0.0067162581522688565,0.020824532892227753,0.9992096725899453,0.015868686139583588,0.017783984541893005,-0.045542407780885696,0.013738632202148438,0.002983182668685913,0.013150334358215332
2025-09-20T02:19:38Z,0.012201625759816299,0.06686825038778206,0.0406020198521712,-0.18368986248970032,-0.2813812494277954,-0.9418506622314453,0.03329661239509956,0.0067746699333791375,0.02049178724808908,0.9992124500865264,0.0033644987270236015,-0.008704762905836105,-0.016711637377738953,0.009887337684631348,0.001334458589553833,0.0075876712799072266
2025-09-20T02:19:38Z,0.011824894339078148,0.06690318923170598,0.04049472434859053,-0.18402142822742462,-0.28143495321273804,-0.9417698383331299,0.03331828103725693,0.006585016008287318,0.02043200081709939,0.9992142156495025,-0.0023738020099699497,-0.034394167363643646,0.009243940934538841,0.005482584238052368,-0.0015926361083984375,0.001405954360961914
2025-09-20T02:19:38Z,0.010914972040567851,0.06686964931171799,0.04090439079534315,-0.18496741354465485,-0.2813236713409424,-0.9416177868843079,0.03330956012991426,0.006136898468897889,0.02062143267830967,0.999213465327711,-0.00753450533375144,-0.05360054224729538,0.032571811228990555,0.003005504608154297,-0.004366546869277954,-0.007755756378173828
2025-09-20T02:19:38Z,0.009710373928221251,0.06666377155590048,0.04176655580545926,-0.18628866970539093,-0.280962198972702,-0.9414652585983276,0.033216727053755384,0.005547304434610647,0.02103168206831332,0.9992114492452688,-0.017982589080929756,-0.06025293841958046,0.05412508547306061,0.001233711838722229,-0.004056185483932495,-0.02025824785232544
2025-09-20T02:19:38Z,0.008494208107473658,0.06626500407351675,0.043071634928690566,-0.18771640956401825,-0.2803328037261963,-0.9413692355155945,0.03302705408749492,0.0049571196862263096,0.021662799321651487,0.9992073296552602,-0.026628801599144936,-0.04974091053009033,0.07211405783891678,0.0011128932237625122,-0.004977434873580933,-0.029924869537353516
2025-09-20T02:19:38Z,0.00752996494665438,0.06573784260019225,0.04468143272520955,-0.1889725923538208,-0.27952271699905396,-0.9413588047027588,0.032770512220651,0.004496118168290255,0.02245033291247689,0.9992005374089237,-0.02714921161532402,-0.032913774251937866,0.08406580239534378,0.0003700554370880127,-0.008596450090408325,-0.03330868482589722
2025-09-20T02:19:38Z,0.007008382989649504,0.06535866983772043,0.0464675476291718,-0.18985024094581604,-0.2788165211677551,-0.94139164686203,0.03258313778052991,0.004260424773962499,0.023333602164121153,0.9991874537785944,-0.013199858367443085,-0.010969053953886032,0.09444717317819595,0.0008191913366317749,-0.012108862400054932,-0.03021794557571411
2025-09-20T02:19:38Z,0.006839422734668768,0.06535167010593283,0.04843667460152508,-0.19043569266796112,-0.278423547744751,-0.9413896799087524,0.03257748360480046,0.00420800885470112,0.024314592047902463,0.9991645000557923,0.010966166853904724,0.00939529575407505,0.10030008107423782,0.0021911561489105225,-0.016473829746246338,-0.02435201406478882
2025-09-20T02:19:38Z,0.007074194456596482,0.0658756370721595,0.050487126367601394,-0.19065888226032257,-0.2785128057003021,-0.9413180947303772,0.032831936449853015,0.004365269512414711,0.025343481354037724,0.9991299113419347,0.03847409784793854,0.02769177034497261,0.10229870676994324,0.005590811371803284,-0.016269415616989136,-0.020190834999084473
2025-09-20T02:19:38Z,0.0076670771652640945,0.06687938266272697,0.05272621888075046,-0.1905858814716339,-0.2790147662162781,-0.9411842226982117,0.03332060312589088,0.004711356533425865,0.026473250994457426,0.9990828614943883,0.05907534807920456,0.04619849845767021,0.11824582517147064,0.007884234189987183,-0.009689301252365112,-0.018106281757354736
2025-09-20T02:19:38Z,0.008644352902013477,0.06829238390316508,0.055460848579647934,-0.19025792181491852,-0.2798018753528595,-0.9410169124603271,0.03400634245669124,0.005264556983681214,0.027857948926895578,0.9990194125159536,0.07906502485275269,0.06673059612512589,0.15781649947166443,0.008691325783729553,-0.0004509389400482178,-0.015463769435882568
2025-09-20T02:19:38Z,0.009900669498847681,0.07012030031100386,0.059162546926277405,-0.1898747831583023,-0.2807844281196594,-0.9408016204833984,0.03489087689046323,0.0059818552339981484,0.0297318674351914,0.9989308851691464,0.09857738018035889,0.08702872693538666,0.2112133800983429,0.00918152928352356,0.005319058895111084,-0.013877153396606445
2025-09-20T02:19:38Z,0.011499439260907794,0.07235684271154376,0.06387697673299511,-0.18938496708869934,-0.2819446325302124,-0.9405533075332642,0.03596800002789867,0.00689801160671704,0.03211949804201045,0.9988128379813179,0.1154889166355133,0.10213842242956161,0.26333722472190857,0.009701862931251526,0.005929172039031982,-0.013165473937988281
2025-09-20T02:19:38Z,0.013201199962348635,0.07491125034439598,0.06964368974851164,-0.18901950120925903,-0.28318580985069275,-0.9402539134025574,0.03719371580563382,0.007895601085145728,0.03503665186740715,0.9986624669176777,0.1303032487630844,0.11056376248598099,0.32406821846961975,0.008631348609924316,0.01144421100616455,-0.014049828052520752
2025-09-20T02:19:38Z,0.015067653638944965,0.07779189142851832,0.07688089241126014,-0.1888052523136139,-0.2844269275665283,-0.9399222731590271,0.038566999390108915,0.00901688632368238,0.03869356571412279,0.9984658489803856,0.14672702550888062,0.13034135103225708,0.3996722102165222,0.01211114227771759,0.015027791261672974,-0.018376290798187256
2025-09-20T02:19:38Z,0.017277836323833857,0.08105797017471618,0.08546628940651696,-0.1885426789522171,-0.28574123978614807,-0.939576268196106,0.0401106446434595,0.01035470278090139,0.04303317548330015,0.9982143736611032,0.16879327595233917,0.15567488968372345,0.4532962143421173,0.01605747640132904,0.0066533684730529785,-0.023396968841552734
2025-09-20T02:19:38Z,0.01997527278578441,0.08480872071174136,0.09484210795740482,-0.1879759579896927,-0.28732869029045105,-0.9392056465148926,0.041868875244705,0.011976679061990831,0.04778122078446761,0.9979080087686301,0.18803058564662933,0.18567466735839844,0.4835152328014374,0.01868976652622223,-0.003923863172531128,-0.026505887508392334
2025-09-20T02:19:38Z,0.02306996563061532,0.08885325477487836,0.1045718829959898,-0.1870957762002945,-0.28909608721733093,-0.9388389587402344,0.04374613993491227,0.01382851127839177,0.052718666179598875,0.9975548139929296,0.1986221969127655,0.20106908679008484,0.48781684041023254,0.01633027195930481,-0.01217678189277649,-0.02276754379272461
2025-09-20T02:19:38Z,0.026291092816633426,0.09302871554671305,0.11420258211029216,-0.18606209754943848,-0.2909838855266571,-0.9384611248970032,0.04566841033932714,0.015762951407247892,0.05761384196231523,0.9971691681449346,0.19975316524505615,0.20494528114795685,0.47806546092033386,0.01404552161693573,-0.016353338956832886,-0.017346620559692383
2025-09-20T02:19:38Z,0.029380863757064286,0.09718909619960998,0.12358034388700598,-0.18508563935756683,-0.29288893938064575,-0.938061535358429,0.0475714485788876,0.017643811731193462,0.06238351555227162,0.9967617317280894,0.19191133975982666,0.19155259430408478,0.46089017391204834,0.00867299735546112,-0.016431421041488647,-0.009990811347961426
2025-09-20T02:19:38Z,0.032117214717959454,0.10119862313968282,0.1325979065536126,-0.18435315787792206,-0.2947092354297638,-0.9376355409622192,0.049397615712392,0.019352493154515354,0.06696745835611184,0.9963436866763589,0.18355436623096466,0.16394133865833282,0.4433322846889496,0.005377709865570068,-0.01693609356880188,-0.003507673740386963
2025-09-20T02:19:38Z,0.034331272726969106,0.10512037695427313,0.14117024743075748,-0.18400806188583374,-0.2965242862701416,-0.9371309280395508,0.05118854867442554,0.020803040825860777,0.07131827734681301,0.9959220433551095,0.1787579357624054,0.13887792825698853,0.421662300825119,0.00415705144405365,-0.019184470176696777,-0.0022733211517333984
2025-09-20T02:19:39Z,0.03598449728267352,0.10900603510358796,0.14939565445801775,-0.18410757184028625,-0.29836341738700867,-0.9365274906158447,0.05297466525811767,0.02197926573073007,0.07548285937822415,0.9954963673540783,0.18048560619354248,0.11448770761489868,0.406088650226593,0.0022409558296203613,-0.01949647068977356,-0.0009031891822814941
2025-09-20T02:19:39Z,0.03725235376039195,0.11296077056247138,0.1573240701177683,-0.18449899554252625,-0.3003152310848236,-0.935826301574707,0.054804795359153176,0.022973051013390665,0.07949016491474568,0.9950628168928012,0.18386653065681458,0.09491682797670364,0.3900741934776306,0.002049773931503296,-0.01999962329864502,-0.002397775650024414
2025-09-20T02:19:39Z,0.038171908940230787,0.11696483822192834,0.16493894570823778,-0.18514509499073029,-0.3023662567138672,-0.9350379109382629,0.05667039055046358,0.02380134457567533,0.08333191731440631,0.994624364092994,0.1878380924463272,0.08384750038385391,0.37750571966171265,0.0027201324701309204,-0.02015507221221924,-0.005396902561187744
2025-09-20T02:19:39Z,0.03897222748533564,0.12104865402841139,0.1722911886940762,-0.18584269285202026,-0.30453476309776306,-0.9341953992843628,0.0585782511418297,0.024580373955843376,0.08703946448821225,0.9941772467496759,0.19111768901348114,0.08127006888389587,0.3678578734397888,0.004607588052749634,-0.02036723494529724,-0.007835626602172852
2025-09-20T02:19:39Z,0.039684059877585866,0.1252131989308483,0.17943303450488182,-0.18657389283180237,-0.3068109154701233,-0.933304488658905,0.060527645355013295,0.02532676598144223,0.09063943647183538,0.9937199583265459,0.1928945779800415,0.07970524579286575,0.3580498993396759,0.004264667630195618,-0.019318342208862305,-0.010868966579437256
2025-09-20T02:19:39Z,0.04051931995431126,0.12933247149348273,0.186456985322484,-0.1871575564146042,-0.309058278799057,-0.9324457049369812,0.06244537751684953,0.02614272042585082,0.09418329284165947,0.9932504846827178,0.1849425584077835,0.09051737934350967,0.3553043305873871,0.005599424242973328,-0.01550939679145813,-0.015080869197845459
2025-09-20T02:19:39Z,0.04160079418631952,0.13328440537850153,0.19346818530653084,-0.18749789893627167,-0.31114131212234497,-0.9316843152046204,0.064262853680451,0.027086077683115727,0.09772664513732546,0.9927668821732564,0.18050086498260498,0.10451028496026993,0.35132473707199097,0.006530836224555969,-0.017578542232513428,-0.01576000452041626
2025-09-20T02:19:39Z,0.04280212796156097,0.1372367977085978,0.20032976167695954,-0.1876901090145111,-0.3132462501525879,-0.9309399724006653,0.06607042325337716,0.02809677684868724,0.10119919307203531,0.9922721056140305,0.18543003499507904,0.11063660681247711,0.33673998713493347,0.006185173988342285,-0.023120760917663574,-0.01409924030303955
2025-09-20T02:19:39Z,0.04420687091685578,0.14133846518274262,0.20679549838045672,-0.18761493265628815,-0.31556642055511475,-0.9301711916923523,0.06794066028032845,0.02921490165686686,0.1044831090701513,0.9917730473861188,0.19385701417922974,0.11454195529222488,0.3189094662666321,0.004361167550086975,-0.026360899209976196,-0.012663304805755615
2025-09-20T02:19:39Z,0.04567004642633894,0.14552736629049365,0.2130188022050859,-0.1874362826347351,-0.31801077723503113,-0.9293743968009949,0.06984776312905146,0.03037010788980002,0.1076497414607199,0.9912670565539667,0.19589926302433014,0.12231587618589401,0.31089290976524353,0.00230485200881958,-0.024809837341308594,-0.012481153011322021
2025-09-20T02:19:39Z,0.047298402622116646,0.14973001714587167,0.21905942646373247,-0.1870659440755844,-0.32049864530563354,-0.9285940527915955,0.07174847507600088,0.031613086363069545,0.11073226264232322,0.990752754522222,0.1934652179479599,0.12968969345092773,0.2997511029243469,0.0033457279205322266,-0.02364298701286316,-0.01183629035949707
2025-09-20T02:19:39Z,0.04906433241124271,0.1538217260919932,0.2248397590857881,-0.18651506304740906,-0.32293397188186646,-0.9278608560562134,0.07358338433005233,0.032919819817737145,0.11369078941688833,0.9902404252639873,0.18298818171024323,0.13526733219623566,0.2863224744796753,0.007157653570175171,-0.02265891432762146,-0.014105618000030518
2025-09-20T02:19:39Z,0.05093816382472074,0.1576666475013061,0.2304344633192948,-0.18582315742969513,-0.3251761496067047,-0.9272163510322571,0.07528561011214586,0.03426947162983736,0.11656049536777356,0.9897329140939649,0.1677786409854889,0.14150092005729675,0.28228694200515747,0.008618742227554321,-0.016281068325042725,-0.013971686363220215
2025-09-20T02:19:39Z,0.05292955431687379,0.1611613861488093,0.23604002900402218,-0.18501409888267517,-0.32708653807640076,-0.926706075668335,0.07679993811656717,0.03566683590637245,0.11943823891371039,0.9892239928393464,0.15044933557510376,0.14158810675144196,0.2879228889942169,0.008757531642913818,-0.009968042373657227,-0.012637317180633545
2025-09-20T02:19:39Z,0.05484482363113137,0.16430710652459726,0.24180991641276128,-0.18429304659366608,-0.32863157987594604,-0.9263030886650085,0.07813562537955279,0.037020740253665266,0.12239224090046295,0.9887084495992519,0.13052181899547577,0.139724463224411,0.2949007749557495,0.007812172174453735,-0.009312838315963745,-0.009771406650543213
2025-09-20T02:19:39Z,0.05653436346179155,0.1671984401951254,0.24766530699950842,-0.18378524482250214,-0.32991665601730347,-0.9259470701217651,0.07935055627876243,0.03825877131235016,0.12537784696976276,0.9881903586003935,0.1210709810256958,0.12540550529956818,0.2967207729816437,0.00582730770111084,-0.011687010526657104,-0.004729866981506348
2025-09-20T02:19:39Z,0.05790538995485418,0.16994580040187066,0.2535047189213114,-0.1835603415966034,-0.33106663823127747,-0.925581157207489,0.08050824764219922,0.03933708548451829,0.12834151941889768,0.9876737634747135,0.11810486763715744,0.10988527536392212,0.2902013957500458,0.00434604287147522,-0.016005903482437134,-0.002209305763244629
2025-09-20T02:19:39Z,0.05893830262974876,0.1726766641576896,0.25930421874064424,-0.1836344450712204,-0.3322039246559143,-0.9251588582992554,0.08167493806130065,0.040252664824167624,0.13127114070626106,0.9871558929387851,0.12132585048675537,0.09348344057798386,0.29342779517173767,0.0019890815019607544,-0.016936033964157104,-0.0013527870178222656
2025-09-20T02:19:39Z,0.05967667646583359,0.17550608127452438,0.26513859456370387,-0.18398165702819824,-0.3334161043167114,-0.9246537089347839,0.08290448223352573,0.04103762302650808,0.13420582439293274,0.9866263347405704,0.12426379323005676,0.08098853379487991,0.29415926337242126,0.0025161057710647583,-0.01775476336479187,-0.0037729740142822266
2025-09-20T02:19:39Z,0.060224651641059807,0.17829924606320494,0.2709139282375087,-0.1844870150089264,-0.3346022069454193,-0.9241244196891785,0.08412633501275821,0.041731161978453384,0.1371018321421142,0.9860955057481396,0.11987168341875076,0.07154539227485657,0.2844918668270111,0.0036470890045166016,-0.021958649158477783,-0.007631659507751465
2025-09-20T02:19:39Z,0.06056388752085501,0.1809907571423963,0.276336537673731,-0.18511803448200226,-0.3357725143432617,-0.9235735535621643,0.08531661876605527,0.042307190373242494,0.13981274842512112,0.9855879714185288,0.11054573208093643,0.06156381219625473,0.26022735238075256,0.005705446004867554,-0.026363670825958252,-0.009523153305053711
2025-09-20T02:19:39Z,0.06087513039874386,0.18340119867940155,0.28117635178152295,-0.18566788733005524,-0.33681946992874146,-0.9230818748474121,0.08638015815538759,0.04283164974117683,0.14223143663225782,0.9851264966714726,0.0983177125453949,0.05352569743990898,0.22657570242881775,0.00667591392993927,-0.0289689302444458,-0.009270131587982178
2025-09-20T02:19:39Z,0.06098090410257074,0.18548980854772099,0.2853375962872197,-0.18628597259521484,-0.3377304673194885,-0.9226243495941162,0.08731246701011586,0.043208250916639906,0.1443030823684313,0.9847264676344764,0.08328626304864883,0.03757204860448837,0.19056938588619232,0.004518613219261169,-0.029398053884506226,-0.004929780960083008
2025-09-20T02:19:39Z,0.06087283712399719,0.18729396198224207,0.28874206531255553,-0.18697002530097961,-0.33855992555618286,-0.9221818447113037,0.08813545139496365,0.043430250096882575,0.14598936969520077,0.9843947783333384,0.07235617190599442,0.01378525048494339,0.1467190384864807,0.004212900996208191,-0.033352673053741455,-0.00046747922897338867
2025-09-20T02:19:39Z,0.06054401514680814,0.1888587789046719,0.2911335766328305,-0.18768803775310516,-0.3394114673137665,-0.9217228889465332,0.08887833570662304,0.04348452978462669,0.14716455635388295,0.9841505459600192,0.06566362828016281,-0.0031347665935754776,0.09659337997436523,0.006469666957855225,-0.03719985485076904,-0.0013723969459533691
2025-09-20T02:19:39Z,0.06004480212010713,0.19028440376774267,0.2925286913639581,-0.18839985132217407,-0.34037336707115173,-0.9212228059768677,0.08958689593807337,0.04340226072534686,0.1478400830239474,0.983988693518941,0.06342890858650208,-0.02012217976152897,0.05056321993470192,0.006616503000259399,-0.03665494918823242,-0.00279921293258667
2025-09-20T02:19:39Z,0.05937995147328478,0.19160440312366175,0.29306043942768806,-0.18912373483181,-0.3414449095726013,-0.9206777811050415,0.0902745204717923,0.04319302110450259,0.14808202123426817,0.9838986749862303,0.061116889119148254,-0.036361053586006165,0.01198483631014824,0.005718201398849487,-0.033099621534347534,-0.004939615726470947
2025-09-20T02:19:39Z,0.05853595631002332,0.19282773970939326,0.29290559029157115,-0.18990051746368408,-0.3425922393798828,-0.9200915098190308,0.09094263438209853,0.042857930857119066,0.14797679613412354,0.9838676391983853,0.054045669734478,-0.05096232518553734,-0.020695213228464127,0.004509761929512024,-0.028573840856552124,-0.005467593669891357
2025-09-20T02:19:39Z,0.057468470152226926,0.19389073761224335,0.29221603549416114,-0.19079358875751495,-0.34372130036354065,-0.9194854497909546,0.0915595689901755,0.04237693382683873,0.1475965682443432,0.9838884054932237,0.04999294877052307,-0.06449107080698013,-0.040490686893463135,0.003989756107330322,-0.024775326251983643,-0.004255354404449463
2025-09-20T02:19:39Z,0.05624370003173601,0.19493555848575672,0.2911956116843322,-0.1917768120765686,-0.34491223096847534,-0.9188346862792969,0.09218568756491408,0.04180163769387606,0.1470455621515301,0.9839370325676812,0.051361773163080215,-0.07579563558101654,-0.05147970840334892,0.003193676471710205,-0.021885544061660767,-0.005376875400543213
2025-09-20T02:19:39Z,0.05493614314682185,0.19596811025049257,0.2900128590479598,-0.19280830025672913,-0.34613004326820374,-0.918160617351532,0.09281456283344139,0.04117662628434959,0.1464100441943301,0.9839989404260444,0.050876688212156296,-0.07440139353275299,-0.05375564843416214,0.005186259746551514,-0.01823556423187256,-0.009686768054962158
2025-09-20T02:19:39Z,0.053702658109095365,0.1969350126312679,0.28880933220120586,-0.19376562535762787,-0.3472926914691925,-0.9175198674201965,0.09340536211140105,0.04058177922508161,0.14576655693676405,0.984063302327245,0.04573279246687889,-0.0665288046002388,-0.060642093420028687,0.007243677973747253,-0.01973840594291687,-0.012720882892608643
2025-09-20T02:19:39Z,0.052663733463201114,0.19768733330149252,0.2872801627979295,-0.1944866180419922,-0.3483378291130066,-0.91697096824646,0.09388216881958833,0.040051705577319886,0.14497001362841588,0.9841572894578967,0.03371656313538551,-0.06798430532217026,-0.0887434333562851,0.006317406892776489,-0.026495933532714844,-0.01161181926727295
2025-09-20T02:19:39Z,0.0516725397491643,0.19815554907328523,0.2849741006865068,-0.19503183662891388,-0.3493095338344574,-0.9164853692054749,0.09423017146107351,0.039488078167079804,0.14379126236247386,0.9843196986897417,0.019350368529558182,-0.08328667283058167,-0.13016358017921448,0.003101348876953125,-0.031424641609191895,-0.007471442222595215
2025-09-20T02:19:39Z,0.050488265747160435,0.19818278498314734,0.28187617113501967,-0.19561555981636047,-0.3500687777996063,-0.9160711765289307,0.09438886597467645,0.03876095058980308,0.14221070479783404,0.9845629880145009,-0.0006757155060768127,-0.09860076755285263,-0.17114704847335815,2.8714537620544434e-05,-0.03200659155845642,-0.005651354789733887
2025-09-20T02:19:39Z,0.04918776612647167,0.1978413961084468,0.2779688141829408,-0.1961641013622284,-0.35068413615226746,-0.9157184362411499,0.09438738863855065,0.03791295948327256,0.1402236630247713,0.9848810769340982,-0.017789680510759354,-0.1120314970612526,-0.20948562026023865,-0.0017380714416503906,-0.029918164014816284,-0.003774285316467285
2025-09-20T02:19:39Z,0.04768384829166158,0.19713110857018792,0.2733711984396628,-0.19677476584911346,-0.3511258661746979,-0.9154180884361267,0.09422787475292148,0.036907723757148986,0.13788458406799403,0.9852647142770218,-0.031048746779561043,-0.1265544891357422,-0.23945516347885132,-0.0024274885654449463,-0.028749287128448486,-0.0026601552963256836
2025-09-20T02:19:39Z,0.04609418534911837,0.1962346555378262,0.26823836748570296,-0.19736649096012115,-0.35152146220207214,-0.915138840675354,0.09398776533365237,0.03582373857090139,0.13527621427062608,0.9856891627271107,-0.03833892196416855,-0.13490436971187592,-0.2649504840373993,-0.001055687665939331,-0.029394567012786865,-0.003678619861602783
2025-09-20T02:19:39Z,0.04449619921620508,0.1951666140798756,0.26254658674484327,-0.19786278903484344,-0.3518882393836975,-0.914890706539154,0.093668232730896,0.034699840857113445,0.1323903929538896,0.9861515057333853,-0.0443585030734539,-0.14125221967697144,-0.2995378375053406,0.001461133360862732,-0.03299528360366821,-0.00582432746887207
2025-09-20T02:19:39Z,0.04284200251016309,0.19397519685221654,0.25602205164114294,-0.19825977087020874,-0.3523320257663727,-0.9146339297294617,0.0932996776344038,0.03350363453556186,0.12908978443934563,0.9866652457837065,-0.05007702857255936,-0.14665132761001587,-0.34112173318862915,0.0023497790098190308,-0.036017775535583496,-0.007540643215179443
2025-09-20T02:19:39Z,0.041292894394337684,0.19268847145178328,0.24874076289126662,-0.1984194815158844,-0.35285794734954834,-0.9143965244293213,0.0928827652536862,0.03232099483871889,0.12541901276825745,0.9872174056940316,-0.05101507529616356,-0.14679186046123505,-0.37126797437667847,0.0015540271997451782,-0.03419420123100281,-0.007476210594177246
2025-09-20T02:19:39Z,0.0396141396260008,0.19145673984540262,0.24085172876002267,-0.19858045876026154,-0.35356488823890686,-0.9140884280204773,0.09250289665882377,0.031052828969235727,0.12144087956255796,0.9877909755005764,-0.04481928423047066,-0.1692807972431183,-0.405686616897583,-0.00247250497341156,-0.03472089767456055,-0.002451181411743164
2025-09-20T02:19:39Z,0.03758051837195899,0.19033308915976696,0.23233478312836103,-0.19894205033779144,-0.35450318455696106,-0.9136462807655334,0.09219793104755214,0.029589884918297647,0.11713482128996053,0.9883842599538913,-0.03787270188331604,-0.18821977078914642,-0.4257151484489441,-0.0025030821561813354,-0.028447121381759644,-0.004013478755950928
2025-09-20T02:19:39Z,0.03548754114857518,0.18935788052142172,0.22364621703340265,-0.1993112564086914,-0.3556027114391327,-0.9131383895874023,0.09196124812441897,0.028100857376164346,0.11273982496326954,0.9889606995525342,-0.031906768679618835,-0.1874810755252838,-0.4227314293384552,0.0008101314306259155,-0.021014273166656494,-0.008204042911529541
2025-09-20T02:19:39Z,0.03336574784066641,0.1886460276324531,0.21510126107196798,-0.199716717004776,-0.356895387172699,-0.9125453233718872,0.09184323629632539,0.026620524248559884,0.10841347497631959,0.9894962107295535,-0.012694884091615677,-0.1843000054359436,-0.4182732105255127,0.003082275390625,-0.024322539567947388,-0.007462739944458008
2025-09-20T02:19:39Z,0.03114795891719765,0.18842979081125516,0.20638068519773406,-0.20016486942768097,-0.3586634695529938,-0.9117535948753357,0.09196674261153862,0.025111103851905632,0.10399531295626148,0.9899982936074717,0.019860681146383286,-0.21291685104370117,-0.44564202427864075,0.00047907233238220215,-0.0332636833190918,-0.000240325927734375
2025-09-20T02:19:39Z,0.028133047456031204,0.18895002920399476,0.19731857547257944,-0.20126385986804962,-0.3611603379249573,-0.9105251431465149,0.09248719875193213,0.02322620668408319,0.09937082770865137,0.9904705894531803,0.052940577268600464,-0.2528513967990875,-0.4351358413696289,-0.002075508236885071,-0.017912626266479492,0.0015142560005187988
2025-09-20T02:19:39Z,0.024892090824090985,0.19006431747970662,0.18881360030835875,-0.20265306532382965,-0.3640555441379547,-0.9090628623962402,0.09329140595384482,0.021278588919554607,0.09500972466953864,0.9908667737602325,0.0724899098277092,-0.22930437326431274,-0.3860395550727844,0.004560649394989014,-0.001196742057800293,-0.014144659042358398
2025-09-20T02:19:39Z,0.022091540458702284,0.1914229322087845,0.18144950900220386,-0.20383495092391968,-0.3669063150882721,-0.907651424407959,0.09417041971301485,0.019607504280138865,0.0912314138800025,0.9911731765571032,0.07585261762142181,-0.18327121436595917,-0.3304001986980438,0.010371237993240356,0.006278544664382935,-0.02789229154586792
2025-09-20T02:19:39Z,0.02023115314605651,0.1928059598530252,0.17511552687926404,-0.20434126257896423,-0.3695424795150757,-0.9064673185348511,0.09499966183701646,0.018446435279903747,0.08800537243680179,0.9914079581034625,0.06801158934831619,-0.12906493246555328,-0.28495892882347107,0.016843318939208984,0.006423771381378174,-0.03498572111129761
2025-09-20T02:19:40Z,0.019209203208491652,0.19381590985611621,0.16953339653266666,-0.2042163610458374,-0.37167003750801086,-0.9056252241134644,0.09559514753687826,0.017716588341969746,0.08519005201966172,0.9916099364905542,0.04401518404483795,-0.08206824958324432,-0.2662830054759979,0.019405677914619446,7.227063179016113e-05,-0.03297227621078491
2025-09-20T02:19:40Z,0.01885032302246789,0.1942956051797087,0.16400097496408436,-0.20348888635635376,-0.3733023405075073,-0.9051174521446228,0.0958965085377516,0.01729344266194865,0.08242990422405111,0.9918215548607124,0.016718665137887,-0.07098108530044556,-0.2806932032108307,0.01430647075176239,-0.01027148962020874,-0.021677374839782715
2025-09-20T02:19:40Z,0.018350561241161877,0.1942663583871009,0.15804320782296996,-0.2027963101863861,-0.37456172704696655,-0.9047525525093079,0.09595294106620499,0.016758666486139932,0.07945101911017699,0.9920683884667169,-0.007136141881346703,-0.09826432168483734,-0.2983313500881195,0.005492553114891052,-0.008008360862731934,-0.00985628366470337
2025-09-20T02:19:40Z,0.017442346071952455,0.19337907231558205,0.1524306674781623,-0.20252636075019836,-0.37496745586395264,-0.9046449661254883,0.09559410731533526,0.0160054777370797,0.07662252540718087,0.9923379110849738,-0.021032385528087616,-0.09803333878517151,-0.28363505005836487,0.00649106502532959,-0.007793545722961426,-0.011666476726531982
2025-09-20T02:19:40Z,0.016529248771098598,0.19249679177255238,0.14681826853691532,-0.20225392282009125,-0.3753717839717865,-0.9045382142066956,0.09523443285202114,0.015252158833097657,0.07379335840998436,0.9925986964247492,-0.03492862731218338,-0.09780234843492508,-0.26893875002861023,0.007487088441848755,-0.007580190896987915,-0.01347583532333374
2025-09-20T02:19:40Z,0.015611304099179385,0.19161960137840403,0.14120600485312457,-0.20197904109954834,-0.3757747411727905,-0.9044322967529297,0.0948739427960244,0.014498719469832624,0.07096353990913132,0.992850805646949,-0.048824869096279144,-0.09757135808467865,-0.254242479801178,0.008480668067932129,-0.007368147373199463,-0.015284299850463867
2025-09-20T02:19:40Z,0.014721246812214893,0.19047982803521044,0.13594851496262902,-0.2017408162355423,-0.37586015462875366,-0.904449999332428,0.09437614585127113,0.013769208503245102,0.06831062494600958,0.9930946968306634,-0.05770760402083397,-0.09089454263448715,-0.25462645292282104,0.009551465511322021,-0.013031452894210815,-0.01671677827835083
2025-09-20T02:19:40Z,0.013954136472223294,0.18915695658472287,0.13061441013434727,-0.20136938989162445,-0.37579119205474854,-0.9045614004135132,0.09378064239103781,0.013093943091629917,0.0656250374382537,0.9933413228777074,-0.06946504861116409,-0.09076052904129028,-0.2634161412715912,0.008367642760276794,-0.014678329229354858,-0.01666802167892456
2025-09-20T02:19:40Z,0.013058519198371466,0.1875678508504708,0.12522533195976154,-0.2010960727930069,-0.37548789381980896,-0.9047481417655945,0.09305426981530551,0.012347286674381763,0.0629057092022208,0.9935950746810135,-0.08171171694993973,-0.09352652728557587,-0.26300811767578125,0.006900668144226074,-0.010854244232177734,-0.015438735485076904
2025-09-20T02:19:40Z,0.01217174760288365,0.18569130391348937,0.11995000147728387,-0.2008306235074997,-0.37489551305770874,-0.9050527215003967,0.09218070976142792,0.011605716782020253,0.060243009000882676,0.9938504003150653,-0.09607695043087006,-0.0954897478222847,-0.25232836604118347,0.006413251161575317,-0.007782846689224243,-0.014033198356628418
2025-09-20T02:19:40Z,0.011341611746999901,0.1835812748773783,0.11483937681970464,-0.20054109394550323,-0.37405213713645935,-0.9054657816886902,0.09118519318956357,0.010897811479384817,0.057664566012276174,0.9941032696249228,-0.10944110155105591,-0.08519454300403595,-0.25144463777542114,0.010981649160385132,-0.011185109615325928,-0.015161097049713135
2025-09-20T02:19:40Z,0.010769291850321288,0.18125680814408865,0.10951548767360561,-0.19996897876262665,-0.3730528652667999,-0.9060044288635254,0.0900739398272668,0.010307752818331175,0.05499158517289529,0.9943622732655347,-0.11740011721849442,-0.07811295986175537,-0.27400270104408264,0.013633504509925842,-0.020154446363449097,-0.014294087886810303
2025-09-20T02:19:40Z,0.010191175915344327,0.17882451028467675,0.10368467760124883,-0.1992926150560379,-0.3720533549785614,-0.9065642952919006,0.088909051810969,0.009695426055241594,0.05206584112867051,0.994630733500145,-0.11746946722269058,-0.08475268632173538,-0.29837408661842346,0.011810407042503357,-0.0228690505027771,-0.009885013103485107
2025-09-20T02:19:40Z,0.00955775865112733,0.17638397721873594,0.09742382497705841,-0.19857138395309448,-0.37112611532211304,-0.9071024060249329,0.0877404334369573,0.009043329448558674,0.048923267709666506,0.9949002085941713,-0.11562984436750412,-0.09139534085988998,-0.314493864774704,0.010996207594871521,-0.02081054449081421,-0.008520066738128662
2025-09-20T02:19:40Z,0.008788191304850788,0.1740171453757502,0.09092199498776922,-0.19791652262210846,-0.3703054189682007,-0.9075807929039001,0.08660928144022763,0.008322046382873208,0.045654438361691016,0.9951608594873161,-0.1114698201417923,-0.09969133138656616,-0.3205404281616211,0.01070675253868103,-0.016767561435699463,-0.008542060852050781
2025-09-20T02:19:40Z,0.007886078666047097,0.17184557115323756,0.08438276664419918,-0.19736690819263458,-0.3696596026420593,-0.9079636931419373,0.08557437359235814,0.007544628395176839,0.04236102133473417,0.9954021469282507,-0.10380350798368454,-0.10329299420118332,-0.3204801380634308,0.010541900992393494,-0.015372902154922485,-0.010563671588897705
2025-09-20T02:19:40Z,0.006903237427469231,0.16982306440199496,0.07794178026858618,-0.196903795003891,-0.3691197633743286,-0.9082838296890259,0.08461064950741522,0.0067408130543309295,0.039112936532640634,0.9956232246417692,-0.09233743697404861,-0.10543132573366165,-0.30868324637413025,0.010456666350364685,-0.01152828335762024,-0.011644542217254639
2025-09-20T02:19:40Z,0.0058496725689174845,0.1681165836858574,0.07183958060682986,-0.19656966626644135,-0.36879006028175354,-0.9084900617599487,0.0838001614156834,0.0059277664649096075,0.03603052616561546,0.9958132523850443,-0.07645043730735779,-0.1040029376745224,-0.28817275166511536,0.01140981912612915,-0.009013950824737549,-0.012154877185821533
2025-09-20T02:19:40Z,0.004812581745918473,0.16678889828143223,0.0662372648904456,-0.19632074236869812,-0.3686971068382263,-0.9085816144943237,0.08317250487576362,0.005154809371063179,0.033197737729580575,0.9959686410898995,-0.05866038426756859,-0.09701299667358398,-0.25970426201820374,0.012044504284858704,-0.006810635328292847,-0.012684226036071777
2025-09-20T02:19:40Z,0.003875546281252381,0.16577362079215494,0.061255338291866884,-0.19610808789730072,-0.3687589466571808,-0.9086024761199951,0.08269381989623087,0.004465537066108521,0.030678049694893367,0.9960926208444383,-0.04303429275751114,-0.08386623114347458,-0.2315617799758911,0.012956231832504272,-0.007037132978439331,-0.015655815601348877
2025-09-20T02:19:40Z,0.0030423716535613265,0.16501679162852725,0.056781197766205244,-0.1959056407213211,-0.36895066499710083,-0.9085683226585388,0.08233847683129487,0.003854888880703149,0.028415503386970152,0.996191717621597,-0.029859483242034912,-0.07620071619749069,-0.20621150732040405,0.01189054548740387,-0.007986694574356079,-0.014979124069213867
2025-09-20T02:19:40Z,0.0022494182450525555,0.16449239318655628,0.05281745378488991,-0.1957729607820511,-0.3692496716976166,-0.9084754586219788,0.08209521361792184,0.0032898326885153492,0.02640875010821491,0.9962690224271784,-0.021836040541529655,-0.07341096550226212,-0.1831291764974594,0.009139835834503174,-0.008468598127365112,-0.014012455940246582
2025-09-20T02:19:40Z,0.0013802136864811349,0.16414975597980602,0.04925481994043493,-0.1957932561635971,-0.36963242292404175,-0.9083153605461121,0.08194095360889282,0.002706394323397255,0.024598583087536523,0.9963298039057769,-0.0140208899974823,-0.0798884779214859,-0.16449391841888428,0.007167518138885498,-0.008677363395690918,-0.010028183460235596
2025-09-20T02:19:40Z,0.00019262090724274182,0.16385420689628583,0.04607754829748956,-0.19618366658687592,-0.36998066306114197,-0.9080893397331238,0.08181156237789496,0.001981184893529182,0.02296734889273926,0.9963810872343459,-0.010571645572781563,-0.08953194320201874,-0.14752903580665588,0.005640894174575806,-0.008653491735458374,-0.00810176134109497
2025-09-20T02:19:40Z,-0.0011293354293067256,0.16366144189501144,0.04320257022186412,-0.19675952196121216,-0.37036168575286865,-0.9078093767166138,0.081732506424151,0.0012028926616163213,0.021481181186589114,0.9964219498915988,-0.00820574164390564,-0.0950830802321434,-0.13395610451698303,0.005621388554573059,-0.009573787450790405,-0.009435534477233887
2025-09-20T02:19:40Z,-0.0026381148435066833,0.16348227749946534,0.040499253339418284,-0.19754034280776978,-0.3707202970981598,-0.9074934124946594,0.08165995875252995,0.0003388875673580896,0.020072940267208038,0.9964579372964869,-0.00792159978300333,-0.09771543741226196,-0.12903718650341034,0.006797701120376587,-0.01292148232460022,-0.010537862777709961
2025-09-20T02:19:40Z,-0.004177721378015902,0.16331343218490377,0.03776538775379546,-0.1983405351638794,-0.37109261751174927,-0.9071666598320007,0.08159059294783148,-0.0005414368408833142,0.018648267025050944,0.9964912900048926,-0.007720817346125841,-0.097655288875103,-0.14180061221122742,0.00993838906288147,-0.01909509301185608,-0.013149619102478027
2025-09-20T02:19:40Z,-0.00560336929447713,0.16313890414093726,0.034584498709992646,-0.1989373415708542,-0.37154364585876465,-0.9068512916564941,0.08151481305516356,-0.0013830681028662978,0.017005583586900883,0.9965260432226277,-0.012458148412406445,-0.09854244440793991,-0.16851407289505005,0.010460063815116882,-0.02381160855293274,-0.01409536600112915
2025-09-20T02:19:40Z,-0.006954357519967493,0.16278836768868046,0.030775380027587732,-0.19932624697685242,-0.37195244431495667,-0.9065982699394226,0.08134755331964759,-0.0022142205953112016,0.015053373252140035,0.9965696122283906,-0.0215788334608078,-0.09807364642620087,-0.20330791175365448,0.009535863995552063,-0.02607738971710205,-0.013697922229766846
2025-09-20T02:19:40Z,-0.008186573358669695,0.16231298493560165,0.02621894976971098,-0.1994396597146988,-0.3723864257335663,-0.9063951373100281,0.08111327585300221,-0.003016740053774294,0.01273404074131473,0.9966189204291885,-0.030729129910469055,-0.10730665922164917,-0.2402639389038086,0.007011666893959045,-0.02610379457473755,-0.01067739725112915
2025-09-20T02:19:40Z,-0.009597067212043384,0.1616281191666463,0.020916383581917265,-0.19954559206962585,-0.37276631593704224,-0.9062156677246094,0.08077080145567997,-0.00393836872947574,0.010036405569925577,0.9966743528477522,-0.04282095283269882,-0.11774115264415741,-0.2818147540092468,0.0068146586418151855,-0.028770118951797485,-0.008135437965393066
2025-09-20T02:19:40Z,-0.011035295700770765,0.1607107867914027,0.014562601045276518,-0.19943749904632568,-0.3731256127357483,-0.906091570854187,0.08030564409071131,-0.004915221905868238,0.006814749325121432,0.9967348387903906,-0.05484882742166519,-0.13563419878482819,-0.34102120995521545,0.006306886672973633,-0.03549817204475403,-0.006609857082366943
2025-09-20T02:19:40Z,-0.01264247089626664,0.1595703907830232,0.006658488978169778,-0.19912764430046082,-0.37356096506118774,-0.9059803485870361,0.07971952039139614,-0.00603571299822781,0.0028147813243663664,0.996795061166099,-0.06898489594459534,-0.1516210436820984,-0.4348340332508087,0.008825689554214478,-0.048289746046066284,-0.006047844886779785
2025-09-20T02:19:40Z,-0.014449924507360368,0.15824719506164667,-0.0031241131275483495,-0.19856318831443787,-0.37416085600852966,-0.9058566689491272,0.0790276544518055,-0.007325749877798845,-0.002128191228845903,0.9968432304095934,-0.07974451035261154,-0.1840372085571289,-0.5314944386482239,0.0037002861499786377,-0.05205756425857544,0.0010952353477478027
2025-09-20T02:19:40Z,-0.016953552275242357,0.1566300640191338,-0.016357620475725497,-0.19782386720180511,-0.3750954866409302,-0.9056318998336792,0.07816046246047306,-0.00909025005979309,-0.008816508799158079,0.9968603183607477,-0.09298313409090042,-0.22277431190013885,-0.6459527015686035,0.0017394870519638062,-0.056822508573532104,0.0009585022926330566
2025-09-20T02:19:40Z,-0.01947799021325751,0.1550457738499444,-0.02959183485682993,-0.1970713883638382,-0.37602075934410095,-0.9054121971130371,0.07728946091186818,-0.010854307432354597,-0.015504387662277354,0.9968289571600175,-0.1062217652797699,-0.2615114152431488,-0.7604110240936279,-0.00023443996906280518,-0.061596810817718506,0.0008268952369689941
2025-09-20T02:19:40Z,-0.022550347938562542,0.15328534957420273,-0.04593548637844266,-0.19605684280395508,-0.377286821603775,-0.905105710029602,0.07628443387435772,-0.012997193121926596,-0.023759920570101577,0.9967181147772294,-0.11232494562864304,-0.29826033115386963,-0.8760944604873657,-0.00278356671333313,-0.06262674927711487,0.00017881393432617188
2025-09-20T02:19:40Z,-0.026149850851669713,0.15155459907330565,-0.06487543941511363,-0.19485542178153992,-0.378958523273468,-0.9046666622161865,0.07523569602401513,-0.015485226780916704,-0.03332548528968502,0.9964883453333333,-0.11760028451681137,-0.3505558967590332,-1.0063222646713257,-0.003659486770629883,-0.06892940402030945,-0.00015628337860107422
2025-09-20T02:19:40Z,-0.030344698534687943,0.149736011651396,-0.08702168068669924,-0.19335801899433136,-0.3809937536716461,-0.9041329622268677,0.07406061073067052,-0.01836807362923921,-0.044504016775133486,0.9960908751358201,-0.1358594298362732,-0.39302682876586914,-1.1779272556304932,-0.0026873648166656494,-0.07419079542160034,-0.003592967987060547
2025-09-20T02:19:40Z,-0.03493468871991413,0.14763202860723898,-0.11242998551305028,-0.19133904576301575,-0.383169561624527,-0.9036428928375244,0.07264258272665797,-0.021534361412476683,-0.057309940589712845,0.9954771890604619,-0.1618940830230713,-0.4421316683292389,-1.3133249282836914,-0.009890377521514893,-0.053736329078674316,0.0018932819366455078
2025-09-20T02:19:40Z,-0.040189739756727565,0.14513076642080738,-0.13960062663114173,-0.18938447535037994,-0.38509514927864075,-0.9032359719276428,0.07091286483458109,-0.02504735275762972,-0.07099933132222196,0.9946370969155803,-0.18329918384552002,-0.4768029749393463,-1.354418396949768,-0.015899434685707092,-0.024748921394348145,0.004138052463531494
2025-09-20T02:19:40Z,-0.04598021712431753,0.1425726260541319,-0.16756116660324036,-0.18760383129119873,-0.3869015574455261,-0.9028355479240417,0.06903855430510153,-0.02880807185995057,-0.0850796210292195,0.9935618382882995,-0.18449804186820984,-0.5095966458320618,-1.3783270120620728,-0.018875420093536377,-0.01819559931755066,0.00589907169342041
2025-09-20T02:19:40Z,-0.0524799739062682,0.1403759913829059,-0.19569647742560478,-0.18630103766918182,-0.3888654410839081,-0.9022613763809204,0.06721406484219684,-0.03289601828475096,-0.09924930605407743,0.9922447317643669,-0.16769111156463623,-0.5302376747131348,-1.382925271987915,-0.015151754021644592,-0.015252739191055298,0.002004563808441162
2025-09-20T02:19:40Z,-0.05916244842031648,0.1387765252309561,-0.2238929487160749,-0.18502676486968994,-0.3911799490451813,-0.9015228152275085,0.06557229953259315,-0.0370629966515129,-0.11343302929553353,0.9906863963521972,-0.14598053693771362,-0.5322567224502563,-1.3988838195800781,-0.008804291486740112,-0.017849892377853394,-0.005912303924560547
2025-09-20T02:19:40Z,-0.06587313138380452,0.13780607694660027,-0.25230385771627195,-0.1836017221212387,-0.39388853311538696,-0.9006343483924866,0.06413095509521403,-0.04124906281701961,-0.12770017212638562,0.9888773512105983,-0.12667182087898254,-0.5270162224769592,-1.394708514213562,-0.010418221354484558,-0.008155673742294312,-0.011547982692718506
2025-09-20T02:19:40Z,-0.07238572545484878,0.1373288830789157,-0.2802688558722735,-0.1820037066936493,-0.3967835605144501,-0.8996874094009399,0.06285116238975422,-0.04532279299437726,-0.1417141520518837,0.9868701723540505,-0.11294225603342056,-0.5055885314941406,-1.371516466140747,-0.00915449857711792,-0.002974390983581543,-0.01726597547531128
2025-09-20T02:19:40Z,-0.0788078794333379,0.1372740391165621,-0.3077668205844797,-0.1803455352783203,-0.399804949760437,-0.8986831903457642,0.061696177578572105,-0.04934062512848087,-0.15546702106049087,0.9846771243336649,-0.09439229965209961,-0.508963406085968,-1.3343123197555542,-0.015860915184020996,0.0036635100841522217,-0.012906193733215332
2025-09-20T02:19:40Z,-0.08520145829461727,0.13764886227550233,-0.33442482535425405,-0.178792804479599,-0.4029293358325958,-0.8975973725318909,0.0606781223947028,-0.05332975553986671,-0.16877754557809066,0.9823381288117375,-0.08197861164808273,-0.5003755688667297,-1.2942709922790527,-0.016279906034469604,0.004854291677474976,-0.014001667499542236
2025-09-20T02:19:40Z,-0.09175635543608077,0.13843471666577178,-0.3602961792398261,-0.1775112748146057,-0.40616026520729065,-0.8963947892189026,0.05977359383756363,-0.05739096680703144,-0.18167873721630162,0.9798602648604648,-0.06805523484945297,-0.5166096687316895,-1.2583202123641968,-0.016912028193473816,0.004992395639419556,-0.010184049606323242
2025-09-20T02:19:40Z,-0.09872650456538208,0.139517424443928,-0.38544038817029375,-0.1767236888408661,-0.4094134569168091,-0.8950694799423218,0.05890072018332969,-0.061645676069690486,-0.19420653039503605,0.9772483111786996,-0.0627540722489357,-0.5162193775177002,-1.2269119024276733,-0.010984718799591064,0.008641630411148071,-0.014727532863616943
2025-09-20T02:19:41Z,-0.10532821001548277,0.14067966733293324,-0.4099052386738082,-0.17573149502277374,-0.41250860691070557,-0.893842875957489,0.058028696209881464,-0.06569459036462065,-0.20635822700488402,0.9745425007895948,-0.07012808322906494,-0.48800981044769287,-1.200584053993225,-0.0051489174365997314,0.012048661708831787,-0.023657023906707764
2025-09-20T02:19:41Z,-0.11147848060205343,0.1415960329300156,-0.4338199106792131,-0.17444881796836853,-0.4151727557182312,-0.8928601145744324,0.05701442345755951,-0.06946892597828443,-0.2181890381484741,0.9717596932484117,-0.08966325223445892,-0.462799608707428,-1.1570037603378296,-0.00629781186580658,0.0204201340675354,-0.023439645767211914
2025-09-20T02:19:41Z,-0.11748594415229212,0.1423864820512795,-0.4566097892576676,-0.17331922054290771,-0.41748666763305664,-0.8920007348060608,0.0559140024745075,-0.07311247120332588,-0.22943181594411924,0.9689629508293717,-0.08960825204849243,-0.469522625207901,-1.0938379764556885,-0.008899524807929993,0.0251162052154541,-0.017052829265594482
2025-09-20T02:19:41Z,-0.12378877666458664,0.1432179277946486,-0.47808796059876396,-0.1727881133556366,-0.41961124539375305,-0.8911064267158508,0.05477210948211809,-0.07685021425312787,-0.24001460617970014,0.9661713180030062,-0.08755278587341309,-0.45385053753852844,-1.024961233139038,-0.004922598600387573,0.027139723300933838,-0.022603154182434082
2025-09-20T02:19:41Z,-0.12955521564107172,0.14403001612613273,-0.49841164760403395,-0.17208042740821838,-0.42152372002601624,-0.8903404474258423,0.05365997397067784,-0.08027885361546233,-0.24999298350325558,0.9634206766149582,-0.08237238228321075,-0.42169851064682007,-0.9828327298164368,0.001890808343887329,0.021219223737716675,-0.026115477085113525
2025-09-20T02:19:41Z,-0.13494411009830493,0.14494292036472212,-0.517975706002834,-0.1712251454591751,-0.42337194085121155,-0.8896281123161316,0.05261263090645456,-0.08350296821999798,-0.2595678591748883,0.9606683196233367,-0.08478967845439911,-0.3904266059398651,-0.9480263590812683,0.003385573625564575,0.018844813108444214,-0.02925419807434082
2025-09-20T02:19:41Z,-0.1396824716214287,0.14580857491525212,-0.5364498426317772,-0.17008782923221588,-0.42501968145370483,-0.889060378074646,0.05161878483328118,-0.0863673807553466,-0.26857322433574893,0.9579898142591635,-0.07938910275697708,-0.3767727315425873,-0.9193702340126038,0.0024146437644958496,0.016328424215316772,-0.025462567806243896
2025-09-20T02:19:41Z,-0.14440454945719552,0.1467607132606992,-0.5549221531223719,-0.16891653835773468,-0.4266473352909088,-0.888503909111023,0.05061991046861242,-0.08922340698956009,-0.27755244065632,0.9552179307174244,-0.07398853451013565,-0.36311888694763184,-0.8907141089439392,0.0014096945524215698,0.013791888952255249,-0.0216597318649292
2025-09-20T02:19:41Z,-0.1488507530061142,0.14786547714801124,-0.5728074809554212,-0.16764692962169647,-0.4282946288585663,-0.887951672077179,0.049711722284821465,-0.09194252899976833,-0.28622131408227325,0.9524455388790772,-0.07149434089660645,-0.3485985994338989,-0.8612551689147949,0.0019015967845916748,0.016271978616714478,-0.02152770757675171
2025-09-20T02:19:41Z,-0.1532800612951029,0.14910084539721655,-0.5899198118786503,-0.1665661484003067,-0.4299449324607849,-0.8873573541641235,0.04885988197047734,-0.09464329018299343,-0.29449948498064865,0.9496974812927647,-0.05761950463056564,-0.35082414746284485,-0.8237749934196472,-0.00015379488468170166,0.018084347248077393,-0.01886659860610962
2025-09-20T02:19:41Z,-0.15795048623440786,0.15052480192285295,-0.6060410956975836,-0.1659635752439499,-0.4316563606262207,-0.8866391181945801,0.04806649057856007,-0.09745311368576907,-0.3022941106522298,0.9470008635348964,-0.04715424403548241,-0.35413914918899536,-0.7675561904907227,-0.00015753507614135742,0.022810012102127075,-0.02018076181411743
2025-09-20T02:19:41Z,-0.16269590738121595,0.1519386146099001,-0.620898996437896,-0.1657848060131073,-0.4332577884197235,-0.8858911395072937,0.04727743073353615,-0.10025928868884249,-0.30947066985471816,0.9444260895151507,-0.03973357006907463,-0.33841878175735474,-0.7049105167388916,0.005868405103683472,0.027139335870742798,-0.025721490383148193
2025-09-20T02:19:41Z,-0.1670828987724949,0.15342843055505004,-0.6346837402850122,-0.16558639705181122,-0.43484607338905334,-0.8851497173309326,0.046596762848296724,-0.10287583732051983,-0.31611524948174435,0.9419746482855925,-0.032711613923311234,-0.30829918384552,-0.6624429225921631,0.01026928424835205,0.02067422866821289,-0.03287631273269653
2025-09-20T02:19:41Z,-0.17099501691304975,0.1550087728426153,-0.6476062185736362,-0.16520467400550842,-0.4364495277404785,-0.8844315409660339,0.04604657684353518,-0.10525790922739352,-0.3223286440436875,0.9396299852714746,-0.02587449923157692,-0.28047794103622437,-0.617249071598053,0.01074470579624176,0.022714287042617798,-0.030844390392303467
2025-09-20T02:19:41Z,-0.17443312155025772,0.1565416073731759,-0.6596364372693228,-0.16466066241264343,-0.43795332312583923,-0.8837894201278687,0.0455705839244591,-0.10738633130949936,-0.3280960391816744,0.9374137197152208,-0.019133787602186203,-0.2638733685016632,-0.5716007947921753,0.008116081357002258,0.023867905139923096,-0.02622222900390625
2025-09-20T02:19:41Z,-0.17780908411030896,0.15806768940072102,-0.6706863051051114,-0.1643417477607727,-0.43940290808677673,-0.8831290602684021,0.04513119721679369,-0.10945987996858314,-0.33338971499557285,0.9353251127696857,-0.020282039418816566,-0.2478209286928177,-0.5249136686325073,0.007973968982696533,0.023495495319366455,-0.02444148063659668
2025-09-20T02:19:41Z,-0.18098414368006382,0.15938220974233822,-0.6809538138278138,-0.16408485174179077,-0.44062426686286926,-0.8825680613517761,0.044648350319183475,-0.11138558249608897,-0.3382958657722896,0.9333571355519863,-0.025212202221155167,-0.2307913452386856,-0.4918782711029053,0.010169446468353271,0.02047443389892578,-0.025051653385162354
2025-09-20T02:19:41Z,-0.18376547497563447,0.16050547245032504,-0.6905948228247636,-0.16367481648921967,-0.4416431188583374,-0.8821348547935486,0.0441601105829073,-0.11307993526191475,-0.3428854051163389,0.931499972738766,-0.02901848405599594,-0.20955435931682587,-0.46135830879211426,0.010697990655899048,0.017687827348709106,-0.02633601427078247
2025-09-20T02:19:41Z,-0.1863876145641052,0.1614647625668191,-0.6997013016204937,-0.16329100728034973,-0.4424891471862793,-0.8817819356918335,0.04363804737887588,-0.11465872215718527,-0.34720872985334694,0.9297284715532536,-0.03529850021004677,-0.19942279160022736,-0.4391671121120453,0.009728565812110901,0.015939712524414062,-0.023641586303710938
2025-09-20T02:19:41Z,-0.18906002893647267,0.16219390129358252,-0.7082699911634985,-0.16312521696090698,-0.44310739636421204,-0.881502091884613,0.043017381260460924,-0.1162076815146659,-0.3512681525101956,0.9280386572793358,-0.04296093434095383,-0.2036001980304718,-0.4014626145362854,0.008503630757331848,0.02139875292778015,-0.019321739673614502
2025-09-20T02:19:41Z,-0.19183817410819445,0.16263688820162953,-0.7160813879768674,-0.163294717669487,-0.44345369935035706,-0.8812965750694275,0.042276589648908985,-0.11773728891068448,-0.3549624176283313,0.926472935810334,-0.055348657071590424,-0.19852928817272186,-0.36022815108299255,0.008772403001785278,0.0224495530128479,-0.025457561016082764
2025-09-20T02:19:41Z,-0.19429034039290374,0.16271439722069955,-0.7231185113923091,-0.1634313315153122,-0.4434623122215271,-0.8812668919563293,0.041458890983954264,-0.11903293009703961,-0.35827351588321155,0.9250687708921046,-0.05891091749072075,-0.16256701946258545,-0.3146428167819977,0.012333914637565613,0.021520227193832397,-0.033640146255493164
2025-09-20T02:19:41Z,-0.19620468209924835,0.1627599165632922,-0.7292955022092368,-0.1633448600769043,-0.44343802332878113,-0.8812952041625977,0.040766540271065806,-0.12005260421692245,-0.36116942785707135,0.9238409741890536,-0.042983278632164,-0.13333627581596375,-0.2797864079475403,0.011750996112823486,0.016336530447006226,-0.030916035175323486
2025-09-20T02:19:41Z,-0.19782089815954243,0.16312700277716055,-0.7347120650779894,-0.16318663954734802,-0.4437007009983063,-0.8811922669410706,0.04031777730316983,-0.12097231868574596,-0.3637142311249053,0.9227415589715743,-0.022817544639110565,-0.10954371094703674,-0.2542124092578888,0.010070189833641052,0.010497331619262695,-0.030306458473205566
2025-09-20T02:19:41Z,-0.19901560872456617,0.16364705899150328,-0.7395508168963515,-0.16280962526798248,-0.44410040974617004,-0.8810606598854065,0.040047589207606316,-0.12171138546647739,-0.36598581913826017,0.9217575198577929,-0.01899978332221508,-0.08619416505098343,-0.22133053839206696,0.010982587933540344,0.017229855060577393,-0.03020542860031128
2025-09-20T02:19:41Z,-0.19983332676441254,0.16393845220279069,-0.7437207452111338,-0.16231225430965424,-0.4442988932132721,-0.8810523748397827,0.03977835492015608,-0.12222255232420315,-0.3679322732793987,0.9209262865448218,-0.026495812460780144,-0.06288093328475952,-0.18808086216449738,0.01075802743434906,0.020955413579940796,-0.030275821685791016
2025-09-20T02:19:41Z,-0.20036426529921933,0.16401247667214788,-0.7474034961142962,-0.1617211401462555,-0.44430580735206604,-0.8811575770378113,0.039489385302650004,-0.12255299862414687,-0.36964023455971917,0.9202105964729929,-0.02781730517745018,-0.05417843535542488,-0.16936694085597992,0.008016705513000488,0.018043428659439087,-0.026074349880218506
2025-09-20T02:19:41Z,-0.20077599607204763,0.16412435450144017,-0.7507622289053151,-0.1611146181821823,-0.44434836506843567,-0.8812471628189087,0.039258873720228696,-0.12282837960875717,-0.3711967236054613,0.9195568331775544,-0.02347555011510849,-0.045829884707927704,-0.15584015846252441,0.005286037921905518,0.014254748821258545,-0.022471904754638672
2025-09-20T02:19:41Z,-0.20143488442781143,0.16433489823286604,-0.7537420516030907,-0.16082574427127838,-0.4444831311702728,-0.881231963634491,0.03905046330525331,-0.12322709949837739,-0.37258587461496157,0.9189503370479467,-0.01181122101843357,-0.06537704169750214,-0.13517163693904877,0.0008911043405532837,0.01622253656387329,-0.013136148452758789
2025-09-20T02:19:41Z,-0.20250191196193315,0.16460237489078738,-0.7561948869584613,-0.16104209423065186,-0.4446764588356018,-0.8810949325561523,0.03882356735401153,-0.12381282916271517,-0.37374179760088627,0.9184116697085009,-0.004534563980996609,-0.08055922389030457,-0.10446639358997345,0.0024310648441314697,0.02019667625427246,-0.01205986738204956
2025-09-20T02:19:41Z,-0.20372214614327333,0.16477373118653307,-0.75803673573622,-0.16157636046409607,-0.44479405879974365,-0.8809377551078796,0.0385601615227682,-0.12443939848670979,-0.3746164432483565,0.9179816494410276,-0.0023812679573893547,-0.07644212245941162,-0.07479694485664368,0.007690161466598511,0.0201549232006073,-0.01774275302886963
2025-09-20T02:19:41Z,-0.20504833488755753,0.1649617833381569,-0.7592819467443214,-0.16237248480319977,-0.44493767619132996,-0.8807188272476196,0.03832075678646547,-0.12510571187422695,-0.3752193905591638,0.9176548328088628,0.003195675555616617,-0.06644503772258759,-0.048499807715415955,0.00939740240573883,0.016426801681518555,-0.022823333740234375
2025-09-20T02:19:41Z,-0.20614101276964514,0.16521782856278103,-0.7599657529123836,-0.16311652958393097,-0.4451531171798706,-0.8804724216461182,0.03819106821370152,-0.12566612596132368,-0.37556226114628954,0.9174434184640186,0.011778557673096657,-0.05646684020757675,-0.025670655071735382,0.008975759148597717,0.012380987405776978,-0.02303522825241089
2025-09-20T02:19:41Z,-0.2071673452038549,0.1655783317706933,-0.7601895302166889,-0.16392332315444946,-0.44547128677368164,-0.8801616430282593,0.0381507162097055,-0.1262060191999598,-0.37569620325116115,0.9173161481131769,0.01809464395046234,-0.050332605838775635,-0.006827246397733688,0.00858396291732788,0.009371757507324219,-0.023209989070892334
2025-09-20T02:19:41Z,-0.2080472514846586,0.16588631299144088,-0.7601776829009232,-0.16467274725437164,-0.44574713706970215,-0.8798820376396179,0.038128402637477646,-0.12666476127392656,-0.3757176217469405,0.9172450351535548,0.0183597132563591,-0.04341782256960869,-0.00202538026496768,0.008542671799659729,0.004438161849975586,-0.02561056613922119
2025-09-20T02:19:41Z,-0.2089232475399669,0.16622680417361677,-0.7601376913418728,-0.16542334854602814,-0.4460526406764984,-0.8795863389968872,0.03812361524151434,-0.12712697323541555,-0.3757271667531816,0.9171773696176216,0.017417551949620247,-0.04066675528883934,-0.002486023586243391,0.007969796657562256,0.00286102294921875,-0.02455240488052368
2025-09-20T02:19:41Z,-0.20953020015650137,0.1665823212617347,-0.7601421531592168,-0.16592292487621307,-0.4463706612586975,-0.8793308734893799,0.03817347989752776,-0.12746931253817792,-0.3757525093835196,0.9171174272027984,0.021808212623000145,-0.022828219458460808,-0.0031842817552387714,0.008871957659721375,-0.0013539791107177734,-0.026982903480529785
2025-09-20T02:19:41Z,-0.21007079279027494,0.1670476978299334,-0.760178892141538,-0.16634447872638702,-0.44678619503974915,-0.8790401816368103,0.038284466709044715,-0.12780156416851574,-0.37579507765337294,0.9170491392237446,0.02442031353712082,-0.0292580034583807,-0.008756320923566818,0.0061111897230148315,-0.0023595988750457764,-0.017945051193237305
2025-09-20T02:19:41Z,-0.2107458641905593,0.16750344032328426,-0.7603389162577262,-0.16684967279434204,-0.4471904933452606,-0.8787387609481812,0.03835780294872892,-0.1281960885472751,-0.3758965140503827,0.9169493843263388,0.015898089855909348,-0.03239494934678078,-0.0138473529368639,0.008405625820159912,0.001477748155593872,-0.015205681324005127
2025-09-20T02:19:41Z,-0.21142785934102723,0.16777117537606095,-0.760539898163184,-0.16736657917499542,-0.4474257826805115,-0.878520667552948,0.03834032227393206,-0.1285607389812993,-0.3760106453312049,0.9168522594668654,0.009705893695354462,-0.042765967547893524,-0.010584961622953415,0.00750325620174408,0.0057499706745147705,-0.013860702514648438
2025-09-20T02:19:41Z,-0.21230526684661344,0.16794223313428094,-0.7608024526484156,-0.1680465042591095,-0.44757333397865295,-0.8783156871795654,0.03823740393509997,-0.12899872202112203,-0.3761535131326526,0.916736447272016,0.005343099124729633,-0.04400310665369034,-0.015581002458930016,0.009274661540985107,0.0014473497867584229,-0.01717066764831543
2025-09-20T02:19:41Z,-0.21320212982528333,0.16808661653334614,-0.7609945899531771,-0.1687658280134201,-0.4476984739303589,-0.8781139850616455,0.03812294171333963,-0.1294394231525391,-0.3762635504030506,0.9166339473345916,0.002038435311987996,-0.04469679296016693,-0.0032721012830734253,0.007556945085525513,0.007721900939941406,-0.018324434757232666
2025-09-20T02:19:41Z,-0.2141028154267819,0.16806484341129763,-0.7608381239677672,-0.16960324347019196,-0.4476822316646576,-0.8779609203338623,0.0379535973223015,-0.1298453266735421,-0.37620823613050625,0.9166062625934079,0.00047723331954330206,-0.048359110951423645,0.022186854854226112,0.007033586502075195,0.012206852436065674,-0.016203701496124268
2025-09-20T02:19:41Z,-0.21512195685903596,0.16783676364062922,-0.7601711199592681,-0.17070940136909485,-0.44749194383621216,-0.8778435587882996,0.03770004589971414,-0.13025882219184812,-0.3759140379707434,0.9166787567818679,-0.006565125659108162,-0.03776675462722778,0.04391821101307869,0.010843083262443542,0.012789338827133179,-0.020476996898651123
2025-09-20T02:19:41Z,-0.2157330148627199,0.16740987993262307,-0.75920311769682,-0.17156191170215607,-0.4471297562122345,-0.8778618574142456,0.037451250222050744,-0.1304441176307739,-0.3754671638692903,0.916845704113971,-0.010605229064822197,-0.027440259233117104,0.04659821465611458,0.009729549288749695,0.007069528102874756,-0.020507395267486572
2025-09-20T02:19:41Z,-0.2163435746711533,0.1669824071382083,-0.7582354471123726,-0.17241403460502625,-0.44676673412323,-0.8778797388076782,0.03720244799262671,-0.13062934874731696,-0.3750201569404953,0.9170123969387223,-0.014645333401858807,-0.017113763839006424,0.04927821829915047,0.008615687489509583,0.0013488829135894775,-0.02053821086883545
2025-09-20T02:19:41Z,-0.2169751724139625,0.1664796898626621,-0.7573199811062028,-0.1732771098613739,-0.4463350176811218,-0.8779294490814209,0.036911725397621276,-0.13081199940444752,-0.3745946157268251,0.9171720077666654,-0.01575598493218422,-0.028870603069663048,0.049424152821302414,0.005721837282180786,0.001582711935043335,-0.016618430614471436
2025-09-20T02:19:41Z,-0.21786221386241042,0.1659092505245056,-0.7563414734613622,-0.17438898980617523,-0.44584354758262634,-0.8779590129852295,0.036546238579065596,-0.13109884899464275,-0.37414218090358115,0.9173303249596325,-0.016722572967410088,-0.03804324194788933,0.05384001135826111,0.006021752953529358,0.0027824342250823975,-0.01800394058227539
2025-09-20T02:19:41Z,-0.2186643400159722,0.1653665440923636,-0.755315551798577,-0.1754373461008072,-0.4453774392604828,-0.87798672914505,0.03621285034173902,-0.13135119753106678,-0.3736670017944524,0.9175012297420537,-0.01411811076104641,-0.030950095504522324,0.05564063787460327,0.006766229867935181,0.0008077323436737061,-0.021644175052642822
2025-09-20T02:19:41Z,-0.21950582347761555,0.1649177485485423,-0.7543227531383487,-0.1765017807483673,-0.4449942708015442,-0.8779676556587219,0.0359136036811167,-0.13163933793094082,-0.37321076888145416,0.9176572703513635,-0.003809615969657898,-0.03635687753558159,0.048162177205085754,0.005328461527824402,-0.0024221837520599365,-0.01865452527999878
2025-09-20T02:19:42Z,-0.2204354047340288,0.16461941431354857,-0.7533995796067477,-0.17760926485061646,-0.4447442293167114,-0.8778709769248962,0.035663194892059,-0.1319962343491617,-0.3727931164106705,0.9177855136111984,-0.0035204493906348944,-0.03627311810851097,0.05236499756574631,0.004766717553138733,0.0027524232864379883,-0.01693141460418701
2025-09-20T02:19:42Z,-0.221315330588875,0.16428475944622792,-0.7522993979779238,-0.17872700095176697,-0.4444645941257477,-0.8777858018875122,0.035417291433448156,-0.1323209917480146,-0.3722917680497982,0.9179517695889343,-0.005674366839230061,-0.03605303913354874,0.0548141747713089,0.005433574318885803,0.0035319924354553223,-0.016397297382354736
2025-09-20T02:19:42Z,-0.22210599514697754,0.16389133740713352,-0.751276347010992,-0.1797502189874649,-0.444130539894104,-0.8777459263801575,0.03515606395035375,-0.13259600183415693,-0.3718218324100257,0.9181125692255633,-0.0075780306942760944,-0.0357719287276268,0.054766565561294556,0.004623040556907654,0.0026544034481048584,-0.016608357429504395
2025-09-20T02:19:42Z,-0.2229089805849902,0.16353226953900807,-0.750287996120308,-0.1807710826396942,-0.4438263177871704,-0.8776901364326477,0.03490642788479145,-0.13288365176819839,-0.37136901181376136,0.9182637886766384,-0.008622083812952042,-0.03285244479775429,0.04736756905913353,0.005114465951919556,-0.00100630521774292,-0.01771247386932373
2025-09-20T02:19:42Z,-0.22367966803996442,0.16318050311430882,-0.7495198332856996,-0.18170036375522614,-0.4435245096683502,-0.8776508569717407,0.03465179726481087,-0.133161843887961,-0.37101673927376966,0.9183755788278061,-0.01142042875289917,-0.027799047529697418,0.034538209438323975,0.00519716739654541,-0.0016223490238189697,-0.0178983211517334
2025-09-20T02:19:42Z,-0.22430769050531635,0.16277057981277707,-0.7490274494061233,-0.18243181705474854,-0.4431656002998352,-0.8776804208755493,0.03437853486906432,-0.13336918852247315,-0.3707862915247327,0.9184488261899977,-0.013528270646929741,-0.035449765622615814,0.022084351629018784,0.002985924482345581,-0.0015174448490142822,-0.016195714473724365
2025-09-20T02:19:42Z,-0.22508663520672254,0.1623267608359352,-0.7487888533982362,-0.18322709202766418,-0.442771852016449,-0.8777134418487549,0.03404478084122653,-0.13364431226955034,-0.3706735153793202,0.9184667875240096,-0.01729058101773262,-0.039308901876211166,0.012881281785666943,0.002943098545074463,0.00038564205169677734,-0.01881331205368042
2025-09-20T02:19:42Z,-0.2258430806758134,0.16190710173528722,-0.7486586667681647,-0.18396952748298645,-0.442397803068161,-0.8777467608451843,0.03371918205973655,-0.1339152842688134,-0.37061083248713106,0.9184645780292544,-0.0179847814142704,-0.03164313733577728,0.010287674143910408,0.005513861775398254,0.0005050897598266602,-0.022088468074798584
2025-09-20T02:19:42Z,-0.22633697271845984,0.16154745650128058,-0.7486205142339181,-0.18444953858852386,-0.4420759379863739,-0.8778082132339478,0.03346386005580928,-0.13407786618876427,-0.37058807322815407,0.9184593504705818,-0.011681009083986282,-0.01784583181142807,0.0011121314018964767,0.006815165281295776,-0.0024445056915283203,-0.024215400218963623
2025-09-20T02:19:42Z,-0.22668756730085315,0.1614065261263688,-0.7486901465316582,-0.18475152552127838,-0.44194838404655457,-0.8778089284896851,0.033329038179930805,-0.13421510388349467,-0.3706205684164406,0.9184311443231183,-0.0027505941689014435,-0.014269068837165833,-0.002748294034972787,0.0052809566259384155,-0.001126021146774292,-0.02078944444656372
2025-09-20T02:19:42Z,-0.22698983919853885,0.16144087200231402,-0.7486504625185698,-0.1850247085094452,-0.44197988510131836,-0.8777355551719666,0.0332915777573366,-0.1343593184248181,-0.37060867185555446,0.9184162467972141,0.005443347617983818,-0.017296746373176575,0.0011318214237689972,0.005709782242774963,0.0018152892589569092,-0.018166005611419678
2025-09-20T02:19:42Z,-0.22732017454409661,0.16158554408156944,-0.7485502652676956,-0.18532869219779968,-0.4421113133430481,-0.8776051998138428,0.033304021853645026,-0.13453491689653588,-0.3705736444365002,0.9184042309959168,0.007132727652788162,-0.00740179605782032,0.005715691484510899,0.006721019744873047,0.0028957724571228027,-0.020523250102996826
2025-09-20T02:19:42Z,-0.2273935245516447,0.161718544121995,-0.7483406966964771,-0.1854393184185028,-0.4422341585159302,-0.8775199055671692,0.033366053362279095,-0.134588611562985,-0.37048367657911574,0.9184304211659629,0.007589549757540226,0.009422015398740768,0.00796495471149683,0.008627966046333313,0.0012619495391845703,-0.024672329425811768
2025-09-20T02:19:42Z,-0.22706158106684693,0.16175903476508427,-0.7480384581756454,-0.1852298229932785,-0.44227561354637146,-0.8775432705879211,0.033466591850696614,-0.13443826867371797,-0.37034085481374884,0.9185064308827697,7.70343467593193e-05,0.021777475252747536,0.020910032093524933,0.007880792021751404,0.008798658847808838,-0.023635566234588623
2025-09-20T02:19:42Z,-0.22662676492595704,0.1614937895151146,-0.7474790910396367,-0.18503345549106598,-0.442047119140625,-0.8776998519897461,0.033461932183532196,-0.13418236023554672,-0.3700666235247135,0.9186545439723557,-0.012913352809846401,0.02430402673780918,0.03892892599105835,0.0060086846351623535,0.011723428964614868,-0.019673585891723633
2025-09-20T02:19:42Z,-0.22632117693279086,0.16090356455275082,-0.7467845807408957,-0.18502101302146912,-0.441529244184494,-0.8779630661010742,0.03329190796895339,-0.13392622952691705,-0.36972015311831374,0.9188375883742849,-0.021151909604668617,0.009922508150339127,0.04306884855031967,0.004032880067825317,0.007418155670166016,-0.0159873366355896
2025-09-20T02:19:42Z,-0.22627802275369374,0.16028539052708562,-0.7460840604155506,-0.18524326384067535,-0.4409860074520111,-0.878189206123352,0.033060690719075844,-0.13378579179433525,-0.3693742013734632,0.9190053824822648,-0.019171612337231636,0.005697665270417929,0.032201044261455536,0.0049535781145095825,0.0001302957534790039,-0.017057716846466064
2025-09-20T02:19:42Z,-0.2262228856988609,0.15978011485442156,-0.7456280659569834,-0.18537434935569763,-0.4405399262905121,-0.8783853650093079,0.032867509183526544,-0.1336638929155435,-0.36914458043952836,0.9191223233830069,-0.011734982021152973,0.010639511980116367,0.021767642349004745,0.005899772047996521,-0.0033611655235290527,-0.01824343204498291
2025-09-20T02:19:42Z,-0.22607036411081433,0.15954217114453587,-0.7452358704368247,-0.18537528812885284,-0.44033265113830566,-0.8784891366958618,0.03281171674010057,-0.13354544641746485,-0.3689528034655058,0.9192185154762729,0.00012204609811306,0.006380318198353052,0.01732916198670864,0.003644004464149475,-0.0030572116374969482,-0.016016840934753418
2025-09-20T02:19:42Z,-0.22600998862754337,0.159404690130542,-0.7448283373635447,-0.18545161187648773,-0.4402157664299011,-0.8785315752029419,0.03278641929462886,-0.1334868035465044,-0.36875927332937897,0.9193056183053074,0.004950898699462414,0.006116132251918316,0.023956947028636932,0.002937793731689453,0.0012326538562774658,-0.015134572982788086
2025-09-20T02:19:42Z,-0.2259782066210597,0.15935646715789004,-0.7442863856826026,-0.18558244407176971,-0.44018107652664185,-0.8785213828086853,0.032806119701180025,-0.13345482292450014,-0.3685077994077062,0.9194103844954142,0.0003307098522782326,0.0017778142355382442,0.028165699914097786,0.003995001316070557,0.0017077922821044922,-0.015913188457489014
2025-09-20T02:19:42Z,-0.2260055056955434,0.15913613041115376,-0.7436992365088575,-0.18579497933387756,-0.4399924576282501,-0.8785709142684937,0.03273824987818271,-0.13341901226980943,-0.3682299458548347,0.9195293050404136,-0.0065582371316850185,0.005754091311246157,0.028125207871198654,0.0058338940143585205,0.0005165934562683105,-0.01928180456161499
2025-09-20T02:19:42Z,-0.22584859776969893,0.15877558273536996,-0.7432436128905345,-0.18582211434841156,-0.43967577815055847,-0.878723680973053,0.032630557564824005,-0.13327606868667238,-0.36800418686553826,0.9196442118878336,-0.012853092513978481,0.01055087149143219,0.030305132269859314,0.005815237760543823,-0.00024443864822387695,-0.019186556339263916
2025-09-20T02:19:42Z,-0.22593593547517798,0.15833785506326448,-0.7427290599584415,-0.1860881894826889,-0.4392905831336975,-0.8788600564002991,0.03244606862724847,-0.13323098354687773,-0.36775232719154216,0.9197580243395801,-0.016342077404260635,-0.007897056639194489,0.029437517747282982,0.000716283917427063,0.0006567537784576416,-0.013790369033813477
2025-09-20T02:19:42Z,-0.2261427603426837,0.15772104448142085,-0.742236741519422,-0.18647058308124542,-0.4387439787387848,-0.8790519833564758,0.03215517915335808,-0.1332098856183425,-0.36750570101787006,0.9198699018329503,-0.02071470208466053,-0.007191014476120472,0.02813476137816906,0.004504799842834473,-0.0016909539699554443,-0.01556485891342163
2025-09-20T02:19:42Z,-0.22634930058324787,0.15710418683510605,-0.7417445916332237,-0.18685270845890045,-0.4381971061229706,-0.8792436122894287,0.031864300492508844,-0.13318879954780824,-0.3672590224661375,0.9199815983617287,-0.025087326765060425,-0.006484971847385168,0.026832005009055138,0.008293017745018005,-0.004038989543914795,-0.017339766025543213
2025-09-20T02:19:42Z,-0.22632318014445774,0.15640812317030592,-0.741428569949294,-0.1869879513978958,-0.43757617473602295,-0.8795240521430969,0.03156770001214605,-0.1330497202684382,-0.3670865248954433,0.9200807911488091,-0.029003985226154327,0.006718145217746496,0.02076597884297371,0.011077836155891418,-0.0025867223739624023,-0.021262168884277344
2025-09-20T02:19:42Z,-0.2261407482533193,0.15562952672783592,-0.7410695754503378,-0.18700584769248962,-0.4368813633918762,-0.8798655867576599,0.031264344728673156,-0.13282367072631646,-0.3668885898227843,0.9202027154095216,-0.03239450976252556,0.01293049193918705,0.03195522725582123,0.007924869656562805,0.004064112901687622,-0.01888030767440796
2025-09-20T02:19:42Z,-0.225949334868873,0.1547911966093294,-0.7404557765724782,-0.18709389865398407,-0.43613630533218384,-0.8802164196968079,0.03095176500701281,-0.1325791532514223,-0.36657091840866096,0.9203751679145853,-0.0289593618363142,0.011286657303571701,0.043371155858039856,0.006852209568023682,0.002420485019683838,-0.01757711172103882
2025-09-20T02:19:42Z,-0.2259241993383436,0.1540169941222008,-0.739649315773355,-0.18737660348415375,-0.43545132875442505,-0.8804954290390015,0.0306510455850239,-0.1324196223248555,-0.3661695425671459,0.9205679214586441,-0.02928069606423378,0.011906061321496964,0.053457990288734436,0.007449254393577576,0.002268761396408081,-0.01976335048675537
2025-09-20T02:19:42Z,-0.22571228034757884,0.15307204944578295,-0.738619199476068,-0.18757487833499908,-0.4346153140068054,-0.8808661699295044,0.0303199974160782,-0.1321410932092173,-0.36565561072911545,0.9208231638697021,-0.03668838366866112,0.02345212921500206,0.06665361672639847,0.008751407265663147,0.005929142236709595,-0.022137582302093506
2025-09-20T02:19:42Z,-0.22528119745428365,0.15196836063667113,-0.7372936939262487,-0.18767912685871124,-0.4336397051811218,-0.8813246488571167,0.029974527791090073,-0.1317298179707303,-0.36499604267821156,0.9211550495707058,-0.04433021321892738,0.033517688512802124,0.08291171491146088,0.008053392171859741,0.008881151676177979,-0.02133387327194214
2025-09-20T02:19:42Z,-0.22482278155932972,0.15063075140333954,-0.7356344882308641,-0.18787617981433868,-0.4324566423892975,-0.8818638324737549,0.029546889040207733,-0.1312606961562997,-0.36417306711135466,0.9215615010352564,-0.045019250363111496,0.04083084687590599,0.10549747943878174,0.007783964276313782,0.010404229164123535,-0.019994258880615234
2025-09-20T02:19:42Z,-0.2242019727995809,0.1492161607135506,-0.7336209204849401,-0.1880374252796173,-0.4312070906162262,-0.8824411630630493,0.029135396140572395,-0.13069886985085968,-0.363181060454166,0.9220458246844953,-0.04425835981965065,0.05100933834910393,0.11610706895589828,0.010717004537582397,0.00717046856880188,-0.02222752571105957
2025-09-20T02:19:42Z,-0.2233709246887341,0.14777841119855617,-0.7314042637811288,-0.1880720853805542,-0.42993706464767456,-0.8830532431602478,0.028763277040181265,-0.13003396865765254,-0.362091041612114,0.9225800726294969,-0.045389484614133835,0.06421791017055511,0.1274750828742981,0.010562673211097717,0.0069806575775146484,-0.023906171321868896
2025-09-20T02:19:42Z,-0.22225332980783502,0.14622910634420122,-0.7288774746681742,-0.1879512071609497,-0.42856743931770325,-0.883744478225708,0.02840959789489801,-0.1292139515644603,-0.3608490591770055,0.9231926254856195,-0.042256031185388565,0.07652052491903305,0.14807137846946716,0.009398654103279114,0.010924160480499268,-0.024361014366149902
2025-09-20T02:19:42Z,-0.22105029401835163,0.14471593226720839,-0.7258105601831798,-0.18790365755558014,-0.42723336815834045,-0.8844003081321716,0.028120620611194212,-0.1283539936073381,-0.35935727355232044,0.9239030588805088,-0.041495855897665024,0.09225676208734512,0.18056254088878632,0.008871421217918396,0.015321522951126099,-0.027082085609436035
2025-09-20T02:19:42Z,-0.21939569228642064,0.1430354529222205,-0.7219763947069269,-0.1876891404390335,-0.4257515072822571,-0.8851601481437683,0.027880782972876175,-0.12724684554817434,-0.35749718178831125,0.9247847145328301,-0.03577182814478874,0.12879955768585205,0.2201036810874939,0.011953860521316528,0.01757708191871643,-0.03355807065963745
2025-09-20T02:19:42Z,-0.21685506588250456,0.1414551082119438,-0.7174338181402033,-0.18688032031059265,-0.42436063289642334,-0.8859987854957581,0.02788535981459674,-0.1257379060994321,-0.35529947799263,0.925837309876136,-0.02065730094909668,0.1880565583705902,0.25421634316444397,0.01275363564491272,0.012703657150268555,-0.035401225090026855
2025-09-20T02:19:42Z,-0.21382241689478207,0.14018751705519217,-0.7122276368126079,-0.1857934445142746,-0.4232504963874817,-0.886758029460907,0.028156796460104265,-0.12404478839306032,-0.3527972896249332,0.9270135609538782,0.01063612475991249,0.19104325771331787,0.2691355347633362,0.001443609595298767,0.0038850605487823486,-0.01812213659286499
2025-09-20T02:19:42Z,-0.21083648115493114,0.1395574365722367,-0.7069667494731413,-0.18470454216003418,-0.42270997166633606,-0.8872432112693787,0.028712027657004976,-0.12247876118255699,-0.3502912540642809,0.9281544052262406,0.04148784279823303,0.16921013593673706,0.2536235749721527,-0.0014452934265136719,-0.0038099586963653564,-0.014000892639160156
2025-09-20T02:19:42Z,-0.20813452631272483,0.13946985584734653,-0.7017489788373776,-0.18380707502365112,-0.42265281081199646,-0.8874567747116089,0.02946048729609353,-0.12113355027203158,-0.3478258709889752,0.9292339945039798,0.05793352052569389,0.1767539530992508,0.2553965449333191,0.0056162625551223755,0.005332499742507935,-0.023158490657806396
2025-09-20T02:19:42Z,-0.20508867206228734,0.13958787820826132,-0.6960709017231211,-0.18271897733211517,-0.422775000333786,-0.8876232504844666,0.030385120729037575,-0.11965220532130698,-0.3451448220425432,0.9303951018308995,0.07146510481834412,0.20842164754867554,0.28774726390838623,0.010684803128242493,0.017732173204421997,-0.035630762577056885
2025-09-20T02:19:42Z,-0.20107818618798082,0.13975933420787479,-0.6897061422138105,-0.18096773326396942,-0.4229363203048706,-0.8879051208496094,0.03153212126062364,-0.11771500328655161,-0.34212589771395674,0.9317181146010125,0.07771646231412888,0.26726284623146057,0.32756203413009644,0.010440915822982788,0.017185300588607788,-0.04152858257293701
2025-09-20T02:19:42Z,-0.19670215055125928,0.14011493903163177,-0.6825777268124401,-0.17909669876098633,-0.42325127124786377,-0.8881344199180603,0.032859448943175266,-0.11561824603774909,-0.3387444447920555,0.9331691954454733,0.09436912834644318,0.2671193778514862,0.3502855896949768,0.00022661685943603516,0.016867071390151978,-0.024426698684692383
2025-09-20T02:19:42Z,-0.19249378469945572,0.14057065341938116,-0.6749277508447821,-0.17751802504062653,-0.4236399531364441,-0.8882660269737244,0.034220628362558805,-0.11359864794331528,-0.33511714518816543,0.9346767710867612,0.09623335301876068,0.2687142789363861,0.38840264081954956,-0.00043742358684539795,0.025640100240707397,-0.018928825855255127
2025-09-20T02:19:42Z,-0.1881599396649093,0.14077728490629962,-0.66610028384623,-0.1761883646249771,-0.4237782061100006,-0.8884648084640503,0.03553602187947812,-0.1114505762739114,-0.33091924591912625,0.9363804320956045,0.08754858374595642,0.2880765497684479,0.4801665246486664,0.0020591169595718384,0.047565996646881104,-0.022081732749938965
2025-09-20T02:19:42Z,-0.18372679742157647,0.14026204588566546,-0.6547741108301364,-0.17554694414138794,-0.4232156574726105,-0.8888598084449768,0.03664541265128446,-0.10908687870196576,-0.32551366184902475,0.9385083726651998,0.07880773395299911,0.32099035382270813,0.6301882266998291,0.004632160067558289,0.0662132203578949,-0.03070521354675293
2025-09-20T02:19:42Z,-0.1786134529731028,0.13921807821555626,-0.6406122361587918,-0.17515623569488525,-0.42209747433662415,-0.8894683718681335,0.03773874148618632,-0.1062588101808848,-0.3187306886576662,0.9411139629835279,0.07928206771612167,0.38649624586105347,0.7580093145370483,0.013830184936523438,0.053213149309158325,-0.042935073375701904
2025-09-20T02:19:42Z,-0.17234428233567792,0.1380896992859496,-0.6243443926000047,-0.17434602975845337,-0.4208050072193146,-0.8902395963668823,0.03904197661182183,-0.10282076946974729,-0.31090861338782627,0.9440547268227505,0.09190386533737183,0.4670264422893524,0.8406695127487183,0.015079140663146973,0.03488779067993164,-0.04857665300369263
2025-09-20T02:19:43Z,-0.1647529158894897,0.13705743445743723,-0.6064701956770701,-0.17280732095241547,-0.41948431730270386,-0.8911624550819397,0.04061644891481357,-0.09872283032556252,-0.30227547052686016,0.9472241090498488,0.1105591431260109,0.5253408551216125,0.922937273979187,0.008016183972358704,0.03699555993080139,-0.042932987213134766
2025-09-20T02:19:43Z,-0.1565758522061106,0.13597782336138522,-0.5862282178083411,-0.17142115533351898,-0.41795772314071655,-0.8921469449996948,0.04229494601667934,-0.09426845333131473,-0.2924710059657043,0.9506761658348363,0.1160295158624649,0.5796458721160889,1.0799466371536255,0.00026342272758483887,0.05644825100898743,-0.04043865203857422
2025-09-20T02:19:43Z,-0.14735153021485717,0.13481683744452413,-0.5629301910661118,-0.16996905207633972,-0.4161277711391449,-0.8932794332504272,0.04413180968119193,-0.08921064592266359,-0.2811437782307962,0.9544903917723515,0.13127277791500092,0.6355667114257812,1.2079120874404907,-0.0017666220664978027,0.041304826736450195,-0.04037594795227051
2025-09-20T02:19:43Z,-0.1376985313047916,0.13409023646778045,-0.538102577314991,-0.16852398216724396,-0.4144691526889801,-0.8943237662315369,0.04618588411418201,-0.08393708486659147,-0.26903452772861397,0.9583536535485193,0.15101350843906403,0.6522775888442993,1.230657935142517,-0.0036067813634872437,0.010374248027801514,-0.031147003173828125
2025-09-20T02:19:43Z,-0.12811475778506498,0.134104727291576,-0.5132338041038479,-0.16708439588546753,-0.4133051931858063,-0.8951321840286255,0.048464414067288235,-0.07874917885045565,-0.2568685613648447,0.962012597324614,0.1579027771949768,0.646446168422699,1.2303096055984497,-0.005758941173553467,0.00821453332901001,-0.021340250968933105
2025-09-20T02:19:43Z,-0.11853408658123639,0.13435539961504553,-0.4883659214752779,-0.16560645401477814,-0.41217952966690063,-0.8959255218505859,0.05073357772752587,-0.0735460131099366,-0.24465291693696445,0.9654853730553816,0.1647920459508896,0.6406148076057434,1.2299612760543823,-0.00794944167137146,0.006093084812164307,-0.01154857873916626
2025-09-20T02:19:43Z,-0.1087970979492033,0.1350048932234699,-0.4633961870023074,-0.16396564245224,-0.4112342894077301,-0.8966614007949829,0.053094669425345326,-0.06826422045069122,-0.23233813439468523,0.9687827193386455,0.18672922253608704,0.6677320003509521,1.2122302055358887,-0.0030989795923233032,-0.020204663276672363,-0.008616864681243896
2025-09-20T02:19:43Z,-0.09961093539171458,0.1368286698335106,-0.4393853396793077,-0.16246236860752106,-0.4112492501735687,-0.8969281315803528,0.0558109304808503,-0.06335401910501239,-0.2204718049644249,0.9717322889121264,0.23855909705162048,0.5720651149749756,1.1244090795516968,-0.019658759236335754,-0.04620900750160217,0.020527303218841553
2025-09-20T02:19:43Z,-0.09208082962655881,0.1399786731438685,-0.41701658959545657,-0.1619013398885727,-0.41243430972099304,-0.8964853286743164,0.05884132495057968,-0.05937774547466713,-0.20942398849097876,0.9742451240254558,0.28392595052719116,0.4890282452106476,1.061872959136963,-0.01878531277179718,-0.03700241446495056,0.025198698043823242
2025-09-20T02:19:43Z,-0.08606027948367741,0.14407606579348725,-0.3952054804685424,-0.1624811291694641,-0.41438278555870056,-0.8954813480377197,0.06208663150428846,-0.05618750336276229,-0.19866477752369038,0.976483754756429,0.3110322654247284,0.4189642667770386,1.05911123752594,-0.016426220536231995,-0.013105720281600952,0.020236670970916748
2025-09-20T02:19:43Z,-0.08157250381035064,0.14837089938066883,-0.3729736005067924,-0.1645212322473526,-0.41633543372154236,-0.8942022323608398,0.06523257949795515,-0.05368828215673367,-0.187713756327665,0.9785836315410122,0.2903754413127899,0.36960098147392273,1.0794490575790405,-0.009791970252990723,0.0029133260250091553,-7.331371307373047e-06
2025-09-20T02:19:43Z,-0.07688682903987776,0.15163560318340258,-0.35083729142831,-0.16636252403259277,-0.41722559928894043,-0.8934463262557983,0.0678394261004567,-0.05094471954762511,-0.17675695949594425,0.9805912960612592,0.21538567543029785,0.4201637804508209,1.0818963050842285,0.009742885828018188,0.002887725830078125,-0.02485048770904541
2025-09-20T02:19:43Z,-0.07172383001323109,0.15387333218934413,-0.32905235312346914,-0.1676769256591797,-0.4170885682106018,-0.8932645320892334,0.06991910513979659,-0.04784597303863752,-0.16591400315315183,0.9824940310445204,0.17244768142700195,0.416334867477417,1.0412722826004028,-0.00018183887004852295,-0.014880955219268799,-0.010238826274871826
2025-09-20T02:19:43Z,-0.06720657058641638,0.15570144112438097,-0.30802974246733394,-0.16933108866214752,-0.41653504967689514,-0.893210768699646,0.07166975681433198,-0.04502275459001823,-0.15543770680453642,0.9842130906403279,0.15802912414073944,0.35408639907836914,1.0180768966674805,-0.013800770044326782,-0.015442430973052979,0.01070469617843628
2025-09-20T02:19:43Z,-0.06391616337113065,0.15759840695145028,-0.28716048438024644,-0.17199496924877167,-0.41594237089157104,-0.8929779529571533,0.07331007118294931,-0.04278348618631406,-0.14505995335262412,0.9857751323492991,0.16560979187488556,0.29744216799736023,1.0288769006729126,-0.012084469199180603,-0.012420475482940674,0.01264864206314087
2025-09-20T02:19:43Z,-0.06175527560425867,0.15974990851970572,-0.26592332484260317,-0.17571401596069336,-0.41541969776153564,-0.8924971222877502,0.07496833559551587,-0.04107541797152654,-0.13452617044949727,0.9872159090057545,0.18033432960510254,0.2661304473876953,1.0387755632400513,-0.0038498789072036743,-0.011344552040100098,-0.000333249568939209
2025-09-20T02:19:43Z,-0.05959801773795938,0.1622133059201078,-0.24483144002874305,-0.17934031784534454,-0.41507717967033386,-0.8919349908828735,0.0767495026487593,-0.0393631236616865,-0.12405058013024547,0.9885198516256054,0.18861225247383118,0.29026439785957336,1.0191439390182495,0.006742298603057861,-0.020561128854751587,-0.01954871416091919
2025-09-20T02:19:43Z,-0.05701141670580143,0.16486753484600092,-0.2241868608314503,-0.18241091072559357,-0.41484811902046204,-0.8914186954498291,0.07861308032811226,-0.03743356037276176,-0.11376583099721015,0.9896848122157726,0.1928393840789795,0.3037058711051941,0.9989160895347595,0.00426030158996582,-0.015618652105331421,-0.01849234104156494
2025-09-20T02:19:43Z,-0.05435519724214938,0.16763149161823432,-0.20388757298137164,-0.18527674674987793,-0.41465383768081665,-0.890917956829071,0.0804965013689492,-0.035454841634470546,-0.10363574945564051,0.9907184166045658,0.19321291148662567,0.2909319996833801,0.9842074513435364,0.001545742154121399,-0.00947493314743042,-0.009917855262756348
2025-09-20T02:19:43Z,-0.052036817276562494,0.1704917198126293,-0.18327800768169974,-0.1884700506925583,-0.4143969714641571,-0.8903674483299255,0.08238465035173316,-0.0336010761178408,-0.09335337047809175,0.9916496097212552,0.20117561519145966,0.2939396798610687,1.0068010091781616,0.001708984375,-0.006693542003631592,-0.009053349494934082
2025-09-20T02:19:43Z,-0.04977754292695108,0.17339837924294024,-0.16266487716261402,-0.1916605830192566,-0.414073646068573,-0.8898366689682007,0.08426341132505125,-0.0317434554438264,-0.08306036663479748,0.992468188553402,0.20913831889629364,0.29694733023643494,1.029394507408142,0.001869499683380127,-0.003978639841079712,-0.008169233798980713
2025-09-20T02:19:43Z,-0.04729587036050611,0.17684713779862532,-0.1417404002501114,-0.19466301798820496,-0.4140838384628296,-0.8891798853874207,0.08639424692857559,-0.02974567296284017,-0.07259739588279479,0.9931671057878502,0.23242692649364471,0.316133975982666,1.003914713859558,0.006616994738578796,-0.020880311727523804,-0.015627562999725342
2025-09-20T02:19:43Z,-0.04434352575297122,0.1807470719847274,-0.12170620444754635,-0.19695758819580078,-0.4145277440547943,-0.8884674906730652,0.0887185986356207,-0.027525893089758294,-0.0625496289620207,0.9937096582361213,0.24723564088344574,0.3290269672870636,0.9421401619911194,0.008794143795967102,-0.032441020011901855,-0.01518326997756958
2025-09-20T02:19:43Z,-0.04132614095718131,0.18490958731670976,-0.10296639769698923,-0.19881725311279297,-0.415313720703125,-0.8876858949661255,0.09112241354593528,-0.025296074535263946,-0.05313475488501449,0.9940993350725467,0.2460935115814209,0.3122044503688812,0.8763970732688904,0.003989124670624733,-0.03164274990558624,-0.0058113993145525455
2025-09-20T02:19:43Z,-0.0390795311211295,0.1888236349124473,-0.085829595176195,-0.20092760026454926,-0.41605275869369507,-0.8868642449378967,0.09333235082727488,-0.023477234382680238,-0.044542646381388155,0.9943609644818201,0.23308198153972626,0.28114116191864014,0.8486537337303162,0.0012430399656295776,-0.02857506275177002,-0.0032283663749694824
2025-09-20T02:19:43Z,-0.03689986055248325,0.19277492677070462,-0.0686887560934868,-0.20305439829826355,-0.41675275564193726,-0.886050820350647,0.0955346166622496,-0.021656454280723783,-0.03594686970444737,0.9945410226777751,0.22007045149803162,0.25007787346839905,0.8209104537963867,-0.0014866292476654053,-0.025546401739120483,-0.0006371140480041504
2025-09-20T02:19:43Z,-0.035233607395117765,0.19647504304946709,-0.05210673162531698,-0.20546267926692963,-0.4172534644603729,-0.8852596282958984,0.09757440661624639,-0.020079628622133396,-0.02764797049535257,0.9946414021962823,0.20350182056427002,0.23136459290981293,0.7908247709274292,0.0006634443998336792,-0.025601446628570557,-0.004831910133361816
2025-09-20T02:19:43Z,-0.03384649277030946,0.19985448107402853,-0.036182267045485154,-0.20792502164840698,-0.4175181984901428,-0.8845596313476562,0.09942581743470563,-0.018639699067319965,-0.01968525032202639,0.99467553436032,0.18742725253105164,0.2180611938238144,0.7551615238189697,0.0015012621879577637,-0.02803051471710205,-0.007397711277008057
2025-09-20T02:19:43Z,-0.032589921252298135,0.20297136332597965,-0.020975057314477945,-0.21029885113239288,-0.41761794686317444,-0.8839511275291443,0.1011225510387067,-0.017271859480711898,-0.012082696996510133,0.9946505503248932,0.1701478511095047,0.20922546088695526,0.725777268409729,0.0020034462213516235,-0.027185410261154175,-0.007882952690124512
2025-09-20T02:19:43Z,-0.031466209338878816,0.20579902629267263,-0.006277749049062767,-0.21263816952705383,-0.4175000786781311,-0.8834470510482788,0.10265568653218841,-0.015971541353512003,-0.004737879109734615,0.9945773816387607,0.15531045198440552,0.1985628455877304,0.7011202573776245,0.0018429011106491089,-0.026789754629135132,-0.006791055202484131
2025-09-20T02:19:43Z,-0.03056813832196568,0.2084025492235227,0.007974607399361972,-0.2150413691997528,-0.41721656918525696,-0.8829991817474365,0.10406044944885455,-0.014785774822749054,0.002375538214061919,0.9944581622019527,0.14262086153030396,0.18684391677379608,0.6790988445281982,0.0012428313493728638,-0.02642306685447693,-0.00787055492401123
2025-09-20T02:19:43Z,-0.02975041829808912,0.21079051230342416,0.021755500060507544,-0.2173765003681183,-0.4167850911617279,-0.8826310634613037,0.10534328527106926,-0.013647054670710373,0.009251254996458685,0.9942991825670765,0.131832093000412,0.18445423245429993,0.6573458909988403,0.002665698528289795,-0.02737748622894287,-0.011188626289367676
2025-09-20T02:19:43Z,-0.02880951123325676,0.2130080231226793,0.03500204988616073,-0.21945233643054962,-0.4162626266479492,-0.8823639154434204,0.10652612433576036,-0.012460327545142374,0.015868189556421077,0.9941051498972099,0.12248314917087555,0.18780341744422913,0.627831757068634,0.005267977714538574,-0.030652999877929688,-0.011922478675842285
2025-09-20T02:19:43Z,-0.027801715022700898,0.2150230540169778,0.047034374107656034,-0.22117426991462708,-0.4157564640045166,-0.8821725845336914,0.10758947824744994,-0.011293305959675488,0.021885825492259276,0.9938903023096534,0.11745894700288773,0.17365607619285583,0.5938533544540405,0.002659156918525696,-0.030134469270706177,-0.006863951683044434
2025-09-20T02:19:43Z,-0.026818364066841054,0.21704976324005978,0.05906995135247976,-0.22289083898067474,-0.4152297377586365,-0.8819886445999146,0.10864865243069127,-0.010125843261402982,0.02790261489042863,0.993636916724781,0.1124347448348999,0.15950873494148254,0.5598748922348022,4.4912099838256836e-05,-0.029636502265930176,-0.0017980337142944336
2025-09-20T02:19:43Z,-0.026140848358136435,0.2190246905198826,0.070374772549811,-0.22469399869441986,-0.4147709608078003,-0.8817469477653503,0.10967365157533533,-0.00913908060152319,0.03353880485840798,0.9933595807046771,0.11173388361930847,0.14109987020492554,0.5280404686927795,-7.505714893341064e-05,-0.030913621187210083,-0.00045436620712280273
2025-09-20T02:19:43Z,-0.02577321140060684,0.221045477478335,0.08101787781568048,-0.22660522162914276,-0.41445839405059814,-0.8814047574996948,0.11071691229281459,-0.008330660807482307,0.03882726503545056,0.9930582935832808,0.11304787546396255,0.1212860643863678,0.4979822039604187,0.0011713504791259766,-0.0313226580619812,-0.0004978179931640625
2025-09-20T02:19:43Z,-0.025646827506878023,0.22310199816494736,0.0910207714424023,-0.22857233881950378,-0.4142831265926361,-0.8809791207313538,0.11177514339810517,-0.007666125917501829,0.04378221163237921,0.9927389647021067,0.11232611536979675,0.10975278913974762,0.46949437260627747,0.002683386206626892,-0.03296244144439697,-0.002485990524291992
2025-09-20T02:19:43Z,-0.025535724368423777,0.22512949247657582,0.10033276147848076,-0.23038996756076813,-0.4142020046710968,-0.8805437088012695,0.11281290141945756,-0.007038526690188634,0.048391588834825326,0.992412201644166,0.10824257135391235,0.10614147782325745,0.4307286739349365,0.00532861053943634,-0.03570100665092468,-0.005496501922607422
2025-09-20T02:19:43Z,-0.025319714973076505,0.22705670261795874,0.10883019526760226,-0.23193144798278809,-0.41418108344078064,-0.8801487684249878,0.11379199029100152,-0.0063985483782556425,0.05260179009179831,0.9920904804354334,0.09949761629104614,0.10365751385688782,0.39189937710762024,0.006648406386375427,-0.03484708070755005,-0.0076604485511779785
2025-09-20T02:19:43Z,-0.025078512937963537,0.22880290226606528,0.11655875841168815,-0.23328131437301636,-0.4141436815261841,-0.879809558391571,0.1146748864643518,-0.0057873914950086845,0.05643219160394642,0.9917820021993511,0.08673793822526932,0.09625465422868729,0.3524092733860016,0.006229817867279053,-0.03359094262123108,-0.00828331708908081
2025-09-20T02:19:43Z,-0.024802618753317573,0.23026904519469032,0.12349193103464778,-0.2344304919242859,-0.4140113294124603,-0.8795663714408875,0.11541274183797223,-0.005207067867017744,0.0598715717764779,0.9914979168509565,0.07137753814458847,0.08781386911869049,0.3154005706310272,0.006279662251472473,-0.03192034363746643,-0.008862316608428955
2025-09-20T02:19:43Z,-0.024559590867892122,0.23148384503223476,0.1297062157999599,-0.23545680940151215,-0.41379687190055847,-0.8793931007385254,0.11602270500337279,-0.004688024941520615,0.06295410376315601,0.99123832218386,0.058589234948158264,0.07645881921052933,0.286714106798172,0.005870833992958069,-0.029735833406448364,-0.00701528787612915
2025-09-20T02:19:43Z,-0.02447570579551592,0.23246377979300306,0.1354140670572706,-0.23651626706123352,-0.4134732186794281,-0.8792610168457031,0.11651832952731418,-0.004281702710122648,0.06577785312984821,0.9909986356772112,0.04760981351137161,0.060712993144989014,0.2621949315071106,0.005393818020820618,-0.026942133903503418,-0.004308819770812988
2025-09-20T02:19:43Z,-0.024537847379989257,0.23325423332309458,0.14060398104925115,-0.2375963181257248,-0.41308462619781494,-0.8791524767875671,0.1169226811473915,-0.003981980338963459,0.06833757673817137,0.9907790512815645,0.03605329245328903,0.050381503999233246,0.23788005113601685,0.005653664469718933,-0.027316898107528687,-0.00549626350402832
2025-09-20T02:19:43Z,-0.024681288512699396,0.2338421059108381,0.1452377043798382,-0.23863425850868225,-0.4126291871070862,-0.8790852427482605,0.11722776772097453,-0.0037605230205202404,0.0706184235039223,0.9905839290373742,0.02593318745493889,0.04045673459768295,0.21040956676006317,0.00451149046421051,-0.02806583046913147,-0.005721390247344971
2025-09-20T02:19:43Z,-0.024870926585516057,0.2342220454320483,0.1492953175161422,-0.23959703743457794,-0.41210779547691345,-0.8790679574012756,0.11743014977628354,-0.0036022509613097805,0.0726128687744248,0.990416358790723,0.015635894611477852,0.0329957976937294,0.18193235993385315,0.004241243004798889,-0.029921233654022217,-0.00576859712600708
2025-09-20T02:19:43Z,-0.025069077061106334,0.23442039773706755,0.15268287547387596,-0.24043431878089905,-0.41156500577926636,-0.8790936470031738,0.11754163491211292,-0.003493802001000942,0.07427656085950435,0.9902801262229121,0.004655202850699425,0.02196580544114113,0.14894400537014008,0.0033756643533706665,-0.031809717416763306,-0.005659282207489014
2025-09-20T02:19:43Z,-0.025420212853727607,0.23437227323973012,0.15545083346335845,-0.24128520488739014,-0.4109339118003845,-0.8791557550430298,0.11753581390321526,-0.003506858088617556,0.07562689722179504,0.9901785858437511,-0.009088938124477863,0.007875434122979641,0.11752372980117798,0.0026346594095230103,-0.03228011727333069,-0.006075859069824219
2025-09-20T02:19:43Z,-0.025852113063650196,0.23402883237269648,0.15749392092684453,-0.2420673370361328,-0.4101945757865906,-0.879285991191864,0.11738590238994644,-0.0036142737994890907,0.07661676040548467,0.9901198720521187,-0.025941867381334305,-0.0013102889060974121,0.0818936824798584,0.002760261297225952,-0.03283300995826721,-0.008017420768737793
2025-09-20T02:19:44Z,-0.02625329169181866,0.23328569836888996,0.15886421784252164,-0.24269504845142365,-0.4092441201210022,-0.8795557618141174,0.11703605972428457,-0.0037622895324834946,0.07727983826795191,0.9901092025126156,-0.04996289312839508,-0.006417358294129372,0.05308839678764343,0.002681642770767212,-0.029818236827850342,-0.00855708122253418
2025-09-20T02:19:44Z,-0.02657539423398819,0.23204301923056259,0.15968772882189275,-0.24315208196640015,-0.4079672396183014,-0.8800225853919983,0.11643506971675985,-0.003923725036168339,0.07768259251392975,0.9901478839966306,-0.07699627429246902,-0.008538978174328804,0.03375848010182381,0.0027311742305755615,-0.02624526619911194,-0.007995307445526123
2025-09-20T02:19:44Z,-0.02686960991625968,0.23025961220500563,0.16014028412013548,-0.24351851642131805,-0.40628939867019653,-0.8806972503662109,0.11556468514878644,-0.004115251840887842,0.07790959343228553,0.99023125633211,-0.10311122983694077,-0.01001687441021204,0.014382001012563705,0.0038482248783111572,-0.026814579963684082,-0.008942246437072754
2025-09-20T02:19:44Z,-0.027059368550131236,0.22791547163067422,0.16012611503815583,-0.2437085658311844,-0.40421223640441895,-0.881600022315979,0.11441164236345396,-0.004304945652340025,0.0779180313928972,0.9903636359533542,-0.13462725281715393,-0.00792619027197361,-0.009040988981723785,0.004493847489356995,-0.02779039740562439,-0.010128378868103027
2025-09-20T02:19:44Z,-0.027057042309004912,0.22491814486061937,0.159571555734445,-0.24363136291503906,-0.401667982339859,-0.8827834725379944,0.11292633344099363,-0.004456471037046391,0.07767712225301933,0.9905523997417237,-0.17172026634216309,-0.005810312926769257,-0.03610996901988983,0.004599347710609436,-0.02968919277191162,-0.010778307914733887
2025-09-20T02:19:44Z,-0.027016441176672287,0.2210946345207803,0.15840915830041116,-0.2434106022119522,-0.3985147476196289,-0.8842722177505493,0.11102862993537056,-0.00465516640027888,0.07714610450431278,0.9908075025132408,-0.21740016341209412,-0.014586559496819973,-0.06541143357753754,0.0025781244039535522,-0.028149813413619995,-0.010161280632019043
2025-09-20T02:19:44Z,-0.026940985386614578,0.21632799503432815,0.156613932159264,-0.24304482340812683,-0.39464983344078064,-0.8861042261123657,0.10866020418739598,-0.004906242865056624,0.07631306621199462,0.9911332399796199,-0.26924440264701843,-0.013962270691990852,-0.08854889869689941,0.002937495708465576,-0.024845987558364868,-0.012843668460845947
2025-09-20T02:19:44Z,-0.026761647723185025,0.2105435315187763,0.15450029644500798,-0.2425338178873062,-0.38993406295776367,-0.8883292078971863,0.10578157850813603,-0.005158216933524359,0.0753374527003662,0.9915179772463257,-0.3177095651626587,-0.010607928968966007,-0.09462769329547882,0.003295615315437317,-0.020408034324645996,-0.013239562511444092
2025-09-20T02:19:44Z,-0.02639949370891573,0.20385213876608865,0.15228656194226664,-0.24184714257717133,-0.3844135105609894,-0.8909187316894531,0.10244488365787258,-0.005353416612567136,0.07432919604426869,0.9919432915644832,-0.3594789505004883,0.00393269956111908,-0.09698960185050964,0.006361961364746094,-0.021535128355026245,-0.015639841556549072
2025-09-20T02:19:44Z,-0.02585877429879389,0.19646411329862368,0.15002363593034426,-0.24099430441856384,-0.37825995683670044,-0.8937791585922241,0.09875443944041085,-0.005481306185098545,0.07330953943015828,0.9923926300512281,-0.3936578333377838,0.014568843878805637,-0.10250722616910934,0.007619082927703857,-0.024945467710494995,-0.01764214038848877
2025-09-20T02:19:44Z,-0.024969710198221494,0.18839913760495586,0.14746750853790644,-0.2397725135087967,-0.37153783440589905,-0.8969218134880066,0.09471305714490137,-0.005466811312155186,0.0721635371477048,0.9928705426056906,-0.4270361363887787,0.028981825336813927,-0.12254953384399414,0.009259968996047974,-0.02875235676765442,-0.02136176824569702
2025-09-20T02:19:44Z,-0.02381896450423951,0.1796111422662178,0.14452306785102495,-0.23823679983615875,-0.36421999335289,-0.9003260731697083,0.09030087445003813,-0.005355583177134955,0.07083732915928662,0.9933776177721879,-0.4605935215950012,0.03660163655877113,-0.14131642878055573,0.0073935240507125854,-0.026877790689468384,-0.01617962121963501
2025-09-20T02:19:44Z,-0.022956680246525557,0.16984870456666532,0.14100922877549554,-0.23684625327587128,-0.3561099171638489,-0.9039300680160522,0.08541167533962983,-0.005433291282115469,0.06921653373275244,0.9939237180416713,-0.47760558128356934,0.022913774475455284,-0.14912012219429016,0.005767747759819031,-0.023312121629714966,-0.01557856798171997
2025-09-20T02:19:44Z,-0.022130540906928467,0.16008336776189025,0.13750962616406986,-0.23548106849193573,-0.34796029329299927,-0.9074537754058838,0.08052019286955363,-0.005510848827444611,0.06759388138387654,0.9944431490183697,-0.49461761116981506,0.00922591146081686,-0.1569238007068634,0.004167318344116211,-0.019785970449447632,-0.015057921409606934
2025-09-20T02:19:44Z,-0.02134026087609262,0.15031525398238327,0.13402352301105558,-0.23414140939712524,-0.3397720456123352,-0.9108966588973999,0.07562655771436126,-0.005588272553844956,0.06596941344837018,0.9949358646996658,-0.5116296410560608,-0.004461951553821564,-0.16472749412059784,0.00259244441986084,-0.01629844307899475,-0.014617979526519775
2025-09-20T02:19:44Z,-0.020671810595024667,0.14007037372078812,0.13050896950342933,-0.23290131986141205,-0.3311190605163574,-0.9143944382667542,0.07049760690763646,-0.005725548554573841,0.0643231234131535,0.9954193906122524,-0.5288723707199097,0.012253224849700928,-0.1584881991147995,0.006852626800537109,-0.011406123638153076,-0.01821887493133545
2025-09-20T02:19:44Z,-0.019773417667262257,0.12959766532842792,0.1270674693155444,-0.23145748674869537,-0.32220548391342163,-0.9179384708404541,0.06524608205310056,-0.005734830316193951,0.06271575975068949,0.9958798812190752,-0.532254695892334,0.024957071989774704,-0.16102205216884613,0.00769941508769989,-0.014943033456802368,-0.013768970966339111
2025-09-20T02:19:44Z,-0.01895130350312088,0.1192749018064775,0.1234943619702549,-0.23004618287086487,-0.3134227693080902,-0.9213278293609619,0.06006952478782,-0.005762879902123393,0.061031799694036167,0.9963099460144933,-0.5140239596366882,0.003033580258488655,-0.16895923018455505,0.0022071003913879395,-0.019910991191864014,-0.005048096179962158
2025-09-20T02:19:44Z,-0.01853412407356135,0.10936493841826576,0.11981419041540518,-0.22897568345069885,-0.3050118088722229,-0.924412190914154,0.05510882927169303,-0.005964341982062004,0.05927363623364527,0.9967015570529817,-0.4919590950012207,-0.003126470372080803,-0.17148470878601074,0.003625214099884033,-0.018941223621368408,-0.008645176887512207
2025-09-20T02:19:44Z,-0.01820557720788587,0.09987286082516494,0.11624639615230774,-0.2280011624097824,-0.29693546891212463,-0.9272781610488892,0.05035744363603654,-0.00617645806116421,0.05756206365312597,0.9970519145261033,-0.4699957072734833,0.01148335263133049,-0.1656263768672943,0.005849301815032959,-0.015856951475143433,-0.014064252376556396
2025-09-20T02:19:44Z,-0.01744653613279928,0.09086360122653848,0.11285525331222035,-0.22665396332740784,-0.2892451286315918,-0.9300350546836853,0.04583362311179475,-0.006139017270161605,0.055941809411541754,0.9973625347278204,-0.44231873750686646,0.033322371542453766,-0.15413598716259003,0.007113605737686157,-0.015359282493591309,-0.014183580875396729
2025-09-20T02:19:44Z,-0.01646384242195606,0.0824879909787976,0.10955268875631763,-0.22510580718517303,-0.2821049094200134,-0.9326007962226868,0.041619367990117576,-0.005955142737185957,0.05436163675466823,0.9976357684720887,-0.40905195474624634,0.03851627558469772,-0.15272429585456848,0.004266306757926941,-0.01938539743423462,-0.010695874691009521
2025-09-20T02:19:44Z,-0.01536790432891022,0.07481238868529999,0.10635797564980252,-0.22346293926239014,-0.27557802200317383,-0.9349444508552551,0.03775164479940696,-0.005679882848618273,0.05282822511210409,0.9978735855058622,-0.372719407081604,0.04512280598282814,-0.14551988244056702,0.004158779978752136,-0.019926756620407104,-0.008696973323822021
2025-09-20T02:19:44Z,-0.014344382828427928,0.06786824165961239,0.10337740752414905,-0.22192147374153137,-0.26967674493789673,-0.9370300769805908,0.0342517653134793,-0.0054055793717958725,0.051391611359471095,0.9980763706966197,-0.3331906497478485,0.039589229971170425,-0.14078348875045776,0.003034621477127075,-0.02316954731941223,-0.005816936492919922
2025-09-20T02:19:44Z,-0.013433494579176478,0.06175879373115023,0.10040150953207942,-0.2204774171113968,-0.26454639434814453,-0.9388316869735718,0.031171780994509006,-0.005155800384142761,0.04994750743343198,0.9982519197155084,-0.291422039270401,0.028713952749967575,-0.14321261644363403,0.0035914480686187744,-0.02665191888809204,-0.00537562370300293
2025-09-20T02:19:44Z,-0.012728910462216586,0.05639550873171834,0.09745088513999205,-0.21922488510608673,-0.26010337471961975,-0.940365195274353,0.028469849032634262,-0.004981137024490299,0.04850659210182783,0.9984045841339534,-0.25839993357658386,0.027587125077843666,-0.13998012244701385,0.004646867513656616,-0.02515771985054016,-0.008016347885131836
2025-09-20T02:19:44Z,-0.012097223141013863,0.05156950988495961,0.09460169511866146,-0.21805627644062042,-0.2561379373073578,-0.941724419593811,0.026038490765624773,-0.004820772481921316,0.04711085907026632,0.99853861364538,-0.23566557466983795,0.023349516093730927,-0.13228139281272888,0.0027702748775482178,-0.022226542234420776,-0.00952523946762085
2025-09-20T02:19:44Z,-0.01139788976809838,0.047118293864930036,0.09208649521211106,-0.2168886810541153,-0.2524506747722626,-0.9429888725280762,0.0237938502346947,-0.004607055968753512,0.045879353106349,0.9986529714309655,-0.22035497426986694,0.033982064574956894,-0.10892263799905777,0.0038841664791107178,-0.017305225133895874,-0.011120975017547607
2025-09-20T02:19:44Z,-0.010604577257901577,0.04298712253845033,0.08995462206915582,-0.2157081961631775,-0.2489815056324005,-0.9441812634468079,0.02170821489270307,-0.004329369307428007,0.044837288664981344,0.9987490697344181,-0.20418862998485565,0.03718501701951027,-0.09230587631464005,0.004302278161048889,-0.017020806670188904,-0.010728299617767334
2025-09-20T02:19:44Z,-0.009700189973983784,0.039129689061850846,0.08814785047910585,-0.2144870012998581,-0.24569988250732422,-0.9453184008598328,0.019758021337148705,-0.003982483656195758,0.04395591699061608,0.9988300735664087,-0.18759475648403168,0.04461222514510155,-0.07862874120473862,0.007237493991851807,-0.017541944980621338,-0.01247793436050415
2025-09-20T02:19:44Z,-0.00874259929789018,0.03561356953826135,0.08662098758940673,-0.21327060461044312,-0.2426804155111313,-0.9463729858398438,0.01797820953890235,-0.003595562723193057,0.043211915280277,0.9988976925134291,-0.17236389219760895,0.04075298830866814,-0.07174381613731384,0.0071156322956085205,-0.01764337718486786,-0.012139201164245605
2025-09-20T02:19:44Z,-0.007899350312256026,0.03227909743746957,0.08523900116009951,-0.21219006180763245,-0.23980024456977844,-0.9473495483398438,0.01629232745036837,-0.003257948361216518,0.04253703417435493,0.9989566950774442,-0.16453474760055542,0.03766202926635742,-0.06122901290655136,0.008091077208518982,-0.014028862118721008,-0.011605620384216309
2025-09-20T02:19:44Z,-0.007074576934430748,0.02910225655284044,0.08403894332986744,-0.21116293966770172,-0.23702964186668396,-0.9482758641242981,0.014686255608927848,-0.0029225592357694985,0.04195097409728788,0.9990074372171929,-0.155055433511734,0.03848104923963547,-0.05618571117520332,0.008217781782150269,-0.014377683401107788,-0.009511709213256836
2025-09-20T02:19:44Z,-0.006293141601780041,0.026213269742961915,0.08291265275493792,-0.21019026637077332,-0.23451490700244904,-0.9491168856620789,0.013225330640506423,-0.0026004130266942586,0.04139948401041338,0.9990517465320252,-0.13528084754943848,0.031980711966753006,-0.05241886526346207,0.007301241159439087,-0.01778535544872284,-0.003358900547027588
2025-09-20T02:19:44Z,-0.005800020682216987,0.023883146796732365,0.0818223770397957,-0.20949679613113403,-0.2325221598148346,-0.9497602581977844,0.0120498482669416,-0.0024089790266982646,0.04086208659144441,0.9990892680718563,-0.1042805090546608,0.007580244913697243,-0.05222611501812935,0.004254594445228577,-0.020633548498153687,0.001762986183166504
2025-09-20T02:19:44Z,-0.005896492888665502,0.022130735814756688,0.08081974231100199,-0.2093803733587265,-0.23105968534946442,-0.9501428008079529,0.011175159050902678,-0.002498637617742731,0.04036362871911449,0.9991194499503065,-0.07643884420394897,-0.013590697199106216,-0.04323907941579819,0.002993673086166382,-0.016882628202438354,-0.0029892325401306152
2025-09-20T02:19:44Z,-0.006110649083867332,0.020779620808942235,0.0800770831237818,-0.2094297558069229,-0.22992531955242157,-0.9504070281982422,0.010503539459905776,-0.002636834040097728,0.03999377862996692,0.9991412618839732,-0.05980490893125534,-0.004286919720470905,-0.028024468570947647,0.007081657648086548,-0.012275278568267822,-0.01322031021118164
2025-09-20T02:19:44Z,-0.006053140979698648,0.019753021694095315,0.07961117060797124,-0.20927859842777252,-0.22904303669929504,-0.9506533145904541,0.009988918410637591,-0.002630992663499801,0.03976308419930092,0.9991557203213829,-0.04924503713846207,0.007645230740308762,-0.016114089637994766,0.008357539772987366,-0.011255621910095215,-0.018396854400634766
2025-09-20T02:19:44Z,-0.005819838544474922,0.018903541989254282,0.07932370590424542,-0.20899748802185059,-0.2282928079366684,-0.9508956074714661,0.00955953472822583,-0.0025327275879517565,0.0396220355698483,0.9991657728846776,-0.040215231478214264,0.013847386464476585,-0.009441167116165161,0.007919058203697205,-0.01160585880279541,-0.017833709716796875
2025-09-20T02:19:44Z,-0.005531608744193848,0.018203620297558933,0.07915572554918561,-0.20868895947933197,-0.22766053676605225,-0.9511149525642395,0.009203953765687159,-0.002403390706309079,0.03954058806166042,0.9991726591173029,-0.03465105965733528,0.010999077931046486,-0.006886394694447517,0.005581215023994446,-0.013165101408958435,-0.015057981014251709
2025-09-20T02:19:44Z,-0.00531826283031697,0.017581135437136342,0.0790100930365096,-0.20845617353916168,-0.22709734737873077,-0.9513006210327148,0.008888582634826519,-0.002309775158052029,0.039469749842607614,0.9991785510425244,-0.02939497120678425,0.00545582314953208,-0.005767048802226782,0.005052611231803894,-0.013674750924110413,-0.011648476123809814
2025-09-20T02:19:44Z,-0.005261850399136081,0.017052048363130776,0.0788009282517607,-0.20835912227630615,-0.22663593292236328,-0.9514318704605103,0.008622903782084274,-0.002292947657876488,0.039366290696776836,0.9991849683908202,-0.025909967720508575,0.0015456839464604855,-0.009771687909960747,0.006133377552032471,-0.014693543314933777,-0.012961804866790771
2025-09-20T02:19:44Z,-0.005199094004505436,0.016601327013207774,0.07855235290671089,-0.20824763178825378,-0.2262571007013321,-0.9515464305877686,0.00839620985616885,-0.00227152027585607,0.039243036349241034,0.9991917455099123,-0.01917472667992115,0.006239953450858593,-0.013869659043848515,0.007188200950622559,-0.01560191810131073,-0.01377779245376587
2025-09-20T02:19:44Z,-0.005071398547797538,0.01629879206228009,0.07814605739717075,-0.2080409973859787,-0.22605150938034058,-0.9516404867172241,0.008242108431302866,-0.002215341004453244,0.03904101585344363,0.9992011695181422,-0.01100576389580965,0.0039354246109724045,-0.01981229893863201,0.006972059607505798,-0.01604156196117401,-0.011926651000976562
2025-09-20T02:19:44Z,-0.0050288602879492725,0.016195848683991123,0.0776730534306905,-0.20790104568004608,-0.226049542427063,-0.9516715407371521,0.00818932759240344,-0.0021980372730137014,0.03880502090363193,0.9992108771974761,-0.003327632788568735,-0.003051476553082466,-0.023710591718554497,0.005661368370056152,-0.0149441659450531,-0.010248184204101562
2025-09-20T02:19:44Z,-0.005179420126721225,0.01618333469365643,0.0771667648772222,-0.20793768763542175,-0.22614039480686188,-0.9516419768333435,0.008185421217711042,-0.002275573047082946,0.03855147787039735,0.999220520992804,-0.0011647685896605253,-0.009997392073273659,-0.023440469056367874,0.00523751974105835,-0.012821927666664124,-0.01105409860610962
2025-09-20T02:19:44Z,-0.005391654978941328,0.016162788497934864,0.07668857730546536,-0.20803889632225037,-0.2262178659439087,-0.9516014456748962,0.008178677304315998,-0.0023839597548188287,0.038311731337786904,0.9992295473915161,-0.0031370839569717646,-0.007983914576470852,-0.022514477372169495,0.006882205605506897,-0.011248186230659485,-0.01326817274093628
2025-09-20T02:19:44Z,-0.005497274146715961,0.016085221635797526,0.07612757827443747,-0.20802120864391327,-0.22625774145126343,-0.9515958428382874,0.008141262785207319,-0.0024404999223005307,0.038031132878955605,0.9992404369236711,-0.004489850252866745,-0.005158311687409878,-0.02710503339767456,0.008320018649101257,-0.01302628219127655,-0.014061212539672852
2025-09-20T02:19:44Z,-0.005568072768424428,0.01600662176572128,0.0755087565359598,-0.20795811712741852,-0.22630830109119415,-0.9515975713729858,0.008102572039722582,-0.002479875831186769,0.037721787880095003,0.9992523905146526,-0.0027861003763973713,-0.003252913011237979,-0.03246881440281868,0.007586047053337097,-0.015677720308303833,-0.012825191020965576
2025-09-20T02:19:44Z,-0.005705203558392644,0.016020168389041856,0.07474075071248339,-0.2079264521598816,-0.2264767587184906,-0.9515644311904907,0.008110947535355757,-0.002551248954224952,0.03733749221895752,0.9992665808559077,0.0009529551025480032,-0.013086440041661263,-0.03488650918006897,0.005166858434677124,-0.01497766375541687,-0.012085199356079102
2025-09-20T02:19:45Z,-0.0059488492303118815,0.01606027198141181,0.07400153780656307,-0.2080020308494568,-0.22666454315185547,-0.9515032172203064,0.008134545520885004,-0.002675239724320184,0.03696710349694691,0.9992797548144208,-0.0025685890577733517,-0.01064059417694807,-0.030879609286785126,0.0060347020626068115,-0.010736808180809021,-0.016005277633666992
2025-09-20T02:19:45Z,-0.006099757274652586,0.015951264417285345,0.07339754118033329,-0.20801806449890137,-0.2266828417778015,-0.951495349407196,0.00808203887119668,-0.0027550978050107245,0.03666488996543155,0.9992910793644134,-0.004618902690708637,-0.0034669036976993084,-0.02427920699119568,0.006996452808380127,-0.00935371220111847,-0.01794874668121338
2025-09-20T02:19:45Z,-0.006156488354911809,0.015886342914666035,0.07288126482022879,-0.20796291530132294,-0.22672532498836517,-0.9514972567558289,0.00804992228308148,-0.0027867131230694376,0.03640681430602222,0.9993006658986322,-0.0010750731453299522,-0.0025386707857251167,-0.02171962521970272,0.00536191463470459,-0.012211933732032776,-0.01579570770263672
2025-09-20T02:19:45Z,-0.006265630522849263,0.016005046085917827,0.07242328797887332,-0.20796969532966614,-0.22693096101284027,-0.9514467716217041,0.008110568455890473,-0.002840939560848009,0.03617734190650551,0.9993083810164094,0.008106667548418045,-0.010436602868139744,-0.019211456179618835,0.004081800580024719,-0.013979405164718628,-0.011351704597473145
2025-09-20T02:19:45Z,-0.00655694105021226,0.016306595316408847,0.072043860537248,-0.20816606283187866,-0.22729484736919403,-0.9513169527053833,0.008265942204004485,-0.0029825999556294786,0.03598604006448843,0.9993135793604131,0.018903223797678947,-0.02044599875807762,-0.016953658312559128,0.00405353307723999,-0.014827266335487366,-0.009268581867218018
2025-09-20T02:19:45Z,-0.006975217191614425,0.016808491034669117,0.07169564012109295,-0.20848941802978516,-0.2278432548046112,-0.9511149525642395,0.00852368845990945,-0.00318403397303665,0.03580937002495727,0.9993171475318692,0.023781251162290573,-0.02320951782166958,-0.015885328873991966,0.004662409424781799,-0.01350201666355133,-0.011445164680480957
2025-09-20T02:19:45Z,-0.0073784659116948054,0.017304197843066246,0.07138105309246882,-0.20880545675754547,-0.22837889194488525,-0.95091712474823,0.008778060175031374,-0.0033780108350750988,0.03564947452509508,0.9993200403859039,0.02185523696243763,-0.019078705459833145,-0.014927416108548641,0.006149783730506897,-0.01297643780708313,-0.01448136568069458
2025-09-20T02:19:45Z,-0.007663049976690379,0.017815076107857753,0.07102457353205058,-0.2089996337890625,-0.22893735766410828,-0.9507401585578918,0.009037771124229705,-0.003512694020524438,0.03546904799290909,0.9993236911551484,0.02050456777215004,-0.012232043780386448,-0.01789838820695877,0.005747079849243164,-0.013857364654541016,-0.01488637924194336
2025-09-20T02:19:45Z,-0.007941008874310264,0.018275416381764754,0.07061631930329725,-0.20917649567127228,-0.2294580340385437,-0.9505757093429565,0.009271970227019359,-0.003645292219527767,0.03526281555274822,0.9993283614885561,0.02085919864475727,-0.00924508273601532,-0.022195754572749138,0.004997879266738892,-0.015042930841445923,-0.01359546184539795
2025-09-20T02:19:45Z,-0.008103607823758336,0.018731971602191744,0.07012914721233784,-0.20922687649726868,-0.2299909144639969,-0.9504358172416687,0.009502054668610396,-0.0037207853192011034,0.03501764078392543,0.9993345157667699,0.02263391576707363,-0.00577202346175909,-0.024325303733348846,0.005441009998321533,-0.01562131941318512,-0.013638138771057129
2025-09-20T02:19:45Z,-0.008229088647935612,0.01921141828102526,0.06958653787754503,-0.20923009514808655,-0.2305566817522049,-0.9502980709075928,0.009742789641463353,-0.003777714301314653,0.03474485317675388,0.9993415399003046,0.02129698172211647,-0.007066087331622839,-0.027590256184339523,0.004803165793418884,-0.015410944819450378,-0.012657523155212402
