timestamp,attitude_roll,attitude_pitch,attitude_yaw,gravity_x,gravity_y,gravity_z,quaternion_x,quaternion_y,quaternion_z,quaternion_w,rotation_rate_x,rotation_rate_y,rotation_rate_z,user_acceleration_x,user_acceleration_y,user_acceleration_z
2025-09-20T02:20:29Z,0.07743567688018374,0.15916760136787872,0.36087634383269485,-0.18185198307037354,-0.2951677739620209,-0.9379796385765076,0.0712259359665433,0.052215619421131725,0.18178590924822444,0.9793641548827856,0.20507517457008362,0.2558152675628662,0.7401064038276672,0.004086539149284363,-0.021887272596359253,-0.009584009647369385
2025-09-20T02:20:29Z,0.0802660740201929,0.16439140712589795,0.3753220531712101,-0.1813405454158783,-0.296342670917511,-0.9377081990242004,0.07313677343816552,0.054589732619142586,0.18901826402245359,0.9777233375077969,0.19644014537334442,0.2533634603023529,0.7197884321212769,0.004976481199264526,-0.025617659091949463,-0.00801241397857666
2025-09-20T02:20:29Z,0.0828624208917528,0.16941515481262456,0.3892345208377872,-0.18092037737369537,-0.29743829369544983,-0.937442421913147,0.07495645136943137,0.0568397933068904,0.1959704556006998,0.9760871986581124,0.18728166818618774,0.23969517648220062,0.6850706338882446,0.0026868730783462524,-0.030621200799942017,-0.004098474979400635
2025-09-20T02:20:29Z,0.08514974705932793,0.17409523520129738,0.4024231551878328,-0.1806381642818451,-0.29837566614151,-0.9371989369392395,0.07663249114213772,0.05890476925851499,0.20254508408797928,0.9744912075328522,0.17267373204231262,0.211546391248703,0.6427666544914246,0.002083420753479004,-0.03471189737319946,0.0006294846534729004
2025-09-20T02:20:29Z,0.08690321960502059,0.17853491536951366,0.41473143056387507,-0.1806938350200653,-0.2992947995662689,-0.9368950724601746,0.07824922433293627,0.060675011445894066,0.20865894264525026,0.9729629996899131,0.15800674259662628,0.17726385593414307,0.6033459901809692,0.00022588670253753662,-0.03513461351394653,0.0051004886627197266
2025-09-20T02:20:29Z,0.08797572036163137,0.18258244236315382,0.42627010859708664,-0.1812426745891571,-0.3000328540802002,-0.9365529417991638,0.07975266341039391,0.0620646133038955,0.21435860192982467,0.9715131705793935,0.14224867522716522,0.13893717527389526,0.5565508008003235,-0.00231035053730011,-0.036596715450286865,0.0071604251861572266
2025-09-20T02:20:29Z,0.08840871920209123,0.18628544449555584,0.436948571839793,-0.18224211037158966,-0.30066126585006714,-0.9361573457717896,0.08117230220961126,0.06309146867786639,0.2196024606502861,0.9701573281560997,0.12805446982383728,0.10606124997138977,0.5207722783088684,-0.004116430878639221,-0.03449457883834839,0.005120337009429932
2025-09-20T02:20:29Z,0.088506943605651,0.18967258214094954,0.4469375605572547,-0.18343442678451538,-0.30116578936576843,-0.9357622265815735,0.08248927491335076,0.06391012548153831,0.22448666495316935,0.9688739381614304,0.10943111777305603,0.08505752682685852,0.48302122950553894,-0.0029696226119995117,-0.03561154007911682,0.0012270212173461914
2025-09-20T02:20:29Z,0.08844726350304644,0.19212699696058408,0.4555706751630419,-0.18456566333770752,-0.3011590242385864,-0.9355419278144836,0.08340952956496184,0.0645072790458554,0.22869053744811596,0.9677717787687552,0.07957623153924942,0.0821501761674881,0.43247345089912415,0.0012763440608978271,-0.03663286566734314,-0.004324674606323242
2025-09-20T02:20:29Z,0.08836593093215955,0.1945808587029515,0.46420808383547596,-0.18569718301296234,-0.301142156124115,-0.9353234767913818,0.08432813394062931,0.06510312792093752,0.23288981398450553,0.9666501678640953,0.04972134530544281,0.07924283295869827,0.38192570209503174,0.005522578954696655,-0.03766429424285889,-0.009874582290649414
2025-09-20T02:20:29Z,0.08839148391096155,0.19605678138769284,0.471458235641435,-0.18652786314487457,-0.3005872964859009,-0.9353366494178772,0.08480273346071684,0.06558900469798067,0.23640828805136818,0.9657212932511365,0.015263710170984268,0.06661994010210037,0.32920509576797485,0.0016495585441589355,-0.03152960538864136,-0.007555246353149414
2025-09-20T02:20:29Z,0.08836179499091817,0.19667056531242885,0.4778329381038595,-0.18727697432041168,-0.29946890473365784,-0.9355456829071045,0.0848935656886681,0.06591555621201277,0.23948991020274144,0.9649314728429074,-0.015496233478188515,0.05164692550897598,0.3019707500934601,-0.002316296100616455,-0.02236005663871765,-0.003376901149749756
2025-09-20T02:20:29Z,0.08790394096445756,0.1968333503727121,0.4839456572520751,-0.18837548792362213,-0.2980026304721832,-0.9357932806015015,0.08482585375962388,0.06597303038332422,0.2424201119044954,0.9642015161510438,-0.02925339713692665,0.021233804523944855,0.2931945025920868,-0.005847841501235962,-0.018525034189224243,0.0018286705017089844
2025-09-20T02:20:29Z,0.08696556965151109,0.19682779284651128,0.4897878207361603,-0.18988071382045746,-0.29644984006881714,-0.9359822869300842,0.08474514741214119,0.06576780958075763,0.24519579653694856,0.9635205453054394,-0.030675115063786507,-0.0002867523580789566,0.2780410945415497,-0.0038378536701202393,-0.022151648998260498,-0.0006715059280395508
2025-09-20T02:20:29Z,0.08571829602874625,0.19667235060504953,0.4952978246414456,-0.19162768125534058,-0.2948443293571472,-0.9361333847045898,0.08464318856225868,0.06538192864282089,0.247795228381152,0.9628905868933644,-0.030662836506962776,-0.010216816328465939,0.2499464750289917,-0.0008600950241088867,-0.029601097106933594,-0.005058348178863525
2025-09-20T02:20:30Z,0.08455799010968876,0.19656869091548446,0.50009323513877,-0.19321273267269135,-0.2934732437133789,-0.9362383484840393,0.08458128012201986,0.06501386068956046,0.2500533362482422,0.9623370012739717,-0.02702573873102665,-0.013430600054562092,0.2155115306377411,0.0006936639547348022,-0.032430827617645264,-0.006912827491760254
2025-09-20T02:20:30Z,0.08339098902488659,0.19646403392375028,0.5043830188503642,-0.19474636018276215,-0.2922336757183075,-0.9363083839416504,0.08453829279233556,0.06462112638604037,0.25206671965977373,0.9618418931231986,-0.02126275561749935,-0.01629336178302765,0.19581499695777893,-0.0014956146478652954,-0.0267755389213562,-0.006310880184173584
2025-09-20T02:20:30Z,0.08221523105695047,0.1964623032846986,0.508296462844541,-0.19624772667884827,-0.2911870777606964,-0.936320960521698,0.08456012853164405,0.0642210417568561,0.25389861433279365,0.9613848294077459,-0.018171319738030434,-0.023485347628593445,0.18739759922027588,-0.0016994774341583252,-0.021652132272720337,-0.007720232009887695
2025-09-20T02:20:30Z,0.08109144911442338,0.1964988984895638,0.5120218177036694,-0.19767843186855316,-0.2902243435382843,-0.9363188743591309,0.0846016391775145,0.0638430475172412,0.2556417156691809,0.9609442369770423,-0.0187187772244215,-0.016465211287140846,0.17286789417266846,0.0008934438228607178,-0.02053925395011902,-0.01400744915008545
2025-09-20T02:20:30Z,0.0802030560884841,0.1964030042253659,0.515455873019206,-0.1988530308008194,-0.2892167270183563,-0.9363819360733032,0.08456002218230788,0.06354958662048606,0.2572530945806628,0.9605372491766923,-0.0231721643358469,-0.000558970496058464,0.15953828394412994,0.0015610158443450928,-0.022950351238250732,-0.01708894968032837
2025-09-20T02:20:30Z,0.07974642079647463,0.19626869216900253,0.5184720989750146,-0.19957801699638367,-0.2882847189903259,-0.9365150928497314,0.08445853410828683,0.06344095429129147,0.258681217892266,0.9601697522620269,-0.0203641839325428,0.009337061084806919,0.13178154826164246,0.00048094987869262695,-0.0295545756816864,-0.014254152774810791
2025-09-20T02:20:30Z,0.0794019704593738,0.1962096901423979,0.5208648759889815,-0.20013591647148132,-0.28758832812309265,-0.9366101622581482,0.0843989456378105,0.06336919859564925,0.2598148508180052,0.959873595637457,-0.010690216906368732,0.004163903184235096,0.09775073826313019,-0.0022159218788146973,-0.034151166677474976,-0.00990450382232666
2025-09-20T02:20:30Z,0.07911648573175707,0.1962199831744579,0.5226216328442193,-0.20057635009288788,-0.2871258556842804,-0.9366578459739685,0.08438540448151699,0.0633076251883524,0.26064589879412586,0.9596535525207761,-0.007313171401619911,-0.0026597189716994762,0.07256892323493958,-0.0028463751077651978,-0.02908468246459961,-0.008326470851898193
2025-09-20T02:20:30Z,0.07879023498352153,0.19608707937909406,0.5236432634220671,-0.2009790539741516,-0.28672927618026733,-0.936693012714386,0.08433175571683066,0.06317734132801842,0.2611214716745661,0.9595375721109125,-0.013911708258092403,-0.004823697730898857,0.04695584625005722,-0.001790359616279602,-0.028514564037322998,-0.010351598262786865
2025-09-20T02:20:30Z,0.07846412271553692,0.1959538124092308,0.5246648345005839,-0.2013813704252243,-0.28633224964141846,-0.9367280006408691,0.08427806798464954,0.06304703197974951,0.2615969801083536,0.9594213515284421,-0.020510245114564896,-0.006987676955759525,0.021342772990465164,-0.0007347464561462402,-0.02794492244720459,-0.012376844882965088
2025-09-20T02:20:30Z,0.078217050496139,0.19560146382480748,0.5248344672188238,-0.20162148773670197,-0.28596314787864685,-0.9367891550064087,0.08413567249948889,0.06289086009653298,0.26166578325945156,0.9594253390502395,-0.01971842162311077,-0.014997417107224464,-0.011017583310604095,-0.0018799155950546265,-0.029519230127334595,-0.009219169616699219
2025-09-20T02:20:30Z,0.0778540303198651,0.1951598118730987,0.5243889037169852,-0.20190821588039398,-0.2856774628162384,-0.936814546585083,0.08398481716886871,0.06264184407890545,0.2614340716818464,0.9595180193019969,-0.020990872755646706,-0.023020368069410324,-0.03779465705156326,-0.0025451481342315674,-0.027164340019226074,-0.005777835845947266
2025-09-20T02:20:30Z,0.07752304909251086,0.1947618870660933,0.5233700235454143,-0.2021096795797348,-0.2855859696865082,-0.9367989897727966,0.08386857970138992,0.06238978137104758,0.2609289299708509,0.959681993645781,-0.01934959553182125,-0.03645589202642441,-0.055554892867803574,-0.00326518714427948,-0.025478094816207886,-0.005239367485046387
2025-09-20T02:20:30Z,0.0769462695380973,0.19435810601702969,0.5220783089607206,-0.202514186501503,-0.2855623960494995,-0.9367188215255737,0.08378974463094409,0.06200769669685109,0.2602824400187339,0.9598891726372865,-0.018540596589446068,-0.03958471119403839,-0.07172609120607376,-0.001057848334312439,-0.022996872663497925,-0.009000897407531738
2025-09-20T02:20:30Z,0.07654998162753966,0.19377790332090225,0.5204421755247022,-0.20271122455596924,-0.2854691445827484,-0.9367045760154724,0.08361277092505327,0.06167569403096027,0.25947703110899306,0.9601440170616915,-0.027836298570036888,-0.03275469318032265,-0.08354678750038147,0.0007577687501907349,-0.02079486846923828,-0.013359546661376953
2025-09-20T02:20:30Z,0.07627340535999448,0.1930813178537114,0.5186643308763634,-0.20277878642082214,-0.28530678153038025,-0.936739444732666,0.08336816832367372,0.06138094257862513,0.258607705659976,0.9604186739723083,-0.036446694284677505,-0.030190829187631607,-0.09027960896492004,0.0003536045551300049,-0.017676115036010742,-0.01033782958984375
2025-09-20T02:20:30Z,0.07611284720499985,0.19220816979102318,0.5167903728194839,-0.2027233988046646,-0.28500768542289734,-0.9368425011634827,0.08302610269465899,0.061116260647658856,0.2576957291771386,0.9607103126600641,-0.044746823608875275,-0.029554707929491997,-0.09713593125343323,0.0001201331615447998,-0.018167436122894287,-0.009813249111175537
2025-09-20T02:20:30Z,0.07590896422552249,0.19112879814976821,0.5146560745090833,-0.20267701148986816,-0.284588485956192,-0.9369799494743347,0.08259779393725435,0.060794933092882295,0.25665530469983105,0.9610460961611718,-0.05145406723022461,-0.034689247608184814,-0.11181771755218506,-5.981326103210449e-05,-0.02116808295249939,-0.008049190044403076
2025-09-20T02:20:30Z,0.07563388535614511,0.1898766758970765,0.5122596244722868,-0.20266591012477875,-0.2840802073478699,-0.9371365904808044,0.08210268950410829,0.0604080970813874,0.2554844749824471,0.9614248191365843,-0.06000912934541702,-0.04152122512459755,-0.13220945000648499,-0.0016382485628128052,-0.02496275305747986,-0.007070660591125488
2025-09-20T02:20:30Z,0.07521272427887317,0.1883984093583105,0.5093822575134271,-0.20273631811141968,-0.2834920585155487,-0.9372994303703308,0.08153076862014325,0.05990466005965533,0.2540745123178777,0.9618785196659819,-0.06340666115283966,-0.051538798958063126,-0.1567426323890686,-0.002735644578933716,-0.029029041528701782,-0.0060135722160339355
2025-09-20T02:20:30Z,0.07472013554180199,0.18690540288389867,0.5060162923768642,-0.20282089710235596,-0.28302001953125,-0.9374237656593323,0.08097393757735764,0.05934696720957271,0.2524258353740111,0.9623940564120009,-0.06369482725858688,-0.05717344582080841,-0.17543795704841614,-0.001878783106803894,-0.028080731630325317,-0.008400022983551025
2025-09-20T02:20:30Z,0.07425172779681238,0.18535084730079562,0.5023921527617108,-0.20285168290138245,-0.28255903720855713,-0.9375562071800232,0.08039027824322367,0.05878499770068111,0.2506526174895885,0.962940787292726,-0.06396635621786118,-0.05505688861012459,-0.19309009611606598,-0.0008979886770248413,-0.026753246784210205,-0.010930776596069336
2025-09-20T02:20:30Z,0.07392869756933056,0.18376502590407756,0.498263749257337,-0.20268893241882324,-0.2822023332118988,-0.9376987814903259,0.0797863080963417,0.058271396293661654,0.248641098343396,0.9635435482021215,-0.07041364908218384,-0.05465283617377281,-0.2196049839258194,0.000725090503692627,-0.028414279222488403,-0.011575520038604736
2025-09-20T02:20:30Z,0.07363467876242852,0.18178535445357924,0.49305505331203836,-0.20237098634243011,-0.2817690074443817,-0.9378977417945862,0.07901791140539183,0.057684498643342255,0.24610594076736822,0.964292769580478,-0.08101420849561691,-0.0618111789226532,-0.2574174404144287,-0.0002053976058959961,-0.030078798532485962,-0.010372400283813477
2025-09-20T02:20:30Z,0.07333030761675213,0.17980715800382552,0.4878475397458005,-0.20205548405647278,-0.28133365511894226,-0.9380964636802673,0.07824886627194345,0.05709714960882162,0.24356879981251325,0.965034271459846,-0.09161476790904999,-0.06896952539682388,-0.2952299118041992,-0.0011334419250488281,-0.031745344400405884,-0.009169459342956543
2025-09-20T02:20:30Z,0.07301926085574344,0.17751365798838567,0.48171693829674805,-0.20163105428218842,-0.28084975481033325,-0.938332736492157,0.07735157870506981,0.05643817993616172,0.24058123665494288,0.9658944195023689,-0.10496646910905838,-0.0751146450638771,-0.32823070883750916,-0.000490337610244751,-0.028649747371673584,-0.009838283061981201
2025-09-20T02:20:30Z,0.07278776132159805,0.17477930777225792,0.47484513029447717,-0.20102989673614502,-0.2801514267921448,-0.9386703968048096,0.07624867655394185,0.05574433249891651,0.23723223011529906,0.9668502713452213,-0.1207326129078865,-0.07493854314088821,-0.362052321434021,0.0020886212587356567,-0.02957490086555481,-0.010413646697998047
2025-09-20T02:20:30Z,0.07249805352452815,0.17172242739660423,0.4672131774372328,-0.20037752389907837,-0.27935072779655457,-0.9390484690666199,0.07501317961165822,0.0549651803055747,0.23350684499464694,0.9678979383809395,-0.13325166702270508,-0.08722485601902008,-0.4094749689102173,0.0010721683502197266,-0.0350266695022583,-0.0056722164154052734
2025-09-20T02:20:30Z,0.0720539200883828,0.16841966219833118,0.4586925569384691,-0.19974620640277863,-0.2785497307777405,-0.9394208192825317,0.07369516332210818,0.05406103635170768,0.22933862703196092,0.969046050266739,-0.13975030183792114,-0.10190578550100327,-0.4492031931877136,-0.001760050654411316,-0.033374786376953125,-0.003230869770050049
2025-09-20T02:20:30Z,0.07140041984946517,0.16494861168171124,0.44950405767485113,-0.199209526181221,-0.2777593731880188,-0.9397687315940857,0.07233015259024421,0.05302473974130982,0.22483200628113192,0.9702614893626096,-0.1475994735956192,-0.11487876623868942,-0.4786822199821472,-0.003052443265914917,-0.028865665197372437,-0.0035933256149291992
2025-09-20T02:20:30Z,0.0706476541944719,0.16117076175809972,0.43975202081859743,-0.19866928458213806,-0.2768220007419586,-0.9401596188545227,0.07083331458688259,0.0519007625617031,0.22003964843273754,0.9715305207763898,-0.1647210270166397,-0.11107169091701508,-0.50771564245224,-0.002002120018005371,-0.02787071466445923,-0.0104902982711792
2025-09-20T02:20:30Z,0.07017266806656246,0.1570249129430322,0.4293398390466088,-0.19775354862213135,-0.2757035493850708,-0.9406812191009521,0.06913467933484985,0.05086602115026597,0.21492616324438038,0.9728514149763378,-0.17892074584960938,-0.11017084121704102,-0.548673152923584,-0.0010143965482711792,-0.031951904296875,-0.010856866836547852
2025-09-20T02:20:30Z,0.06953937471946182,0.1526121896993177,0.41815444358156517,-0.1968545913696289,-0.27452337741851807,-0.9412147402763367,0.06733262357732125,0.04971965373399557,0.20942056570513598,0.9742368135944561,-0.1842716634273529,-0.12101876735687256,-0.5795443654060364,-0.0004403740167617798,-0.030496865510940552,-0.008332014083862305
2025-09-20T02:20:30Z,0.06883051018678986,0.14803736532110348,0.40635212984391744,-0.1959104835987091,-0.273334264755249,-0.9417576193809509,0.0654631343691325,0.048521529309944085,0.20360163545338972,0.9756569501760077,-0.19581598043441772,-0.12460779398679733,-0.607317328453064,-0.00013746321201324463,-0.025935471057891846,-0.012031733989715576
2025-09-20T02:20:30Z,0.06814470983873824,0.14322591906023058,0.3941962194978994,-0.19485685229301453,-0.271996408700943,-0.9423633813858032,0.06347191452914253,0.04732404595684798,0.1975994466312488,0.9770804143237214,-0.20703840255737305,-0.1207619160413742,-0.6243314743041992,0.0016053766012191772,-0.022424548864364624,-0.01388084888458252
2025-09-20T02:20:30Z,0.06733577746560271,0.13827311904747744,0.38164451718591774,-0.1938244253396988,-0.2706061005592346,-0.9429763555526733,0.061419927944685836,0.04606657543923273,0.19138913835021576,0.978506829514416,-0.2037966251373291,-0.14111678302288055,-0.6429128646850586,-0.0018301904201507568,-0.021167457103729248,-0.007379889488220215
2025-09-20T02:20:30Z,0.06604560500620994,0.13356279758984066,0.3689076979086905,-0.1931842416524887,-0.26946359872817993,-0.9434347748756409,0.05952190695925972,0.04461695898336802,0.18506697891186522,0.9799063996715732,-0.18653182685375214,-0.15655456483364105,-0.6384105682373047,-0.0020646750926971436,-0.015964925289154053,-0.0019034743309020996
2025-09-20T02:20:30Z,0.06445517086068464,0.12918703402829354,0.35648833710626726,-0.19283844530582428,-0.26852741837501526,-0.9437724351882935,0.057791843535270025,0.04308401402846391,0.17888715241367456,0.9812253225158929,-0.1747545599937439,-0.1648939996957779,-0.6190720796585083,-0.002234131097793579,-0.010408073663711548,-0.0010178685188293457
2025-09-20T02:20:30Z,0.06255478463880962,0.12496661104847467,0.34422125571475715,-0.19277212023735046,-0.2676737308502197,-0.9440284371376038,0.05614470047557852,0.04143897413109188,0.1727682494777063,0.9824874467212655,-0.17603997886180878,-0.1763799488544464,-0.625004768371582,-0.0011336803436279297,-0.01389777660369873,-0.001994192600250244
2025-09-20T02:20:30Z,0.06060340702812007,0.12076965139233466,0.33195250280284494,-0.19271725416183472,-0.26681843400001526,-0.9442817568778992,0.054495068636307195,0.03979210771000655,0.16664167119039444,0.9837059052388571,-0.17732538282871246,-0.18786588311195374,-0.6309374570846558,-2.1755695343017578e-05,-0.017389118671417236,-0.0029732584953308105
2025-09-20T02:20:30Z,0.05807715163750477,0.11657194428263634,0.3194381450519254,-0.19313110411167145,-0.2659984230995178,-0.9444285035133362,0.05287745716237608,0.03787696568353116,0.160373672816008,0.9849109300841736,-0.16905272006988525,-0.21460074186325073,-0.6320992708206177,-0.0021500736474990845,-0.015383869409561157,-8.07046890258789e-05
2025-09-20T02:20:30Z,0.055109319267795276,0.1126168133757662,0.30694509685076976,-0.19393151998519897,-0.26537349820137024,-0.9444403052330017,0.051390959688487226,0.03578428427143445,0.15410287236761905,0.9860683498275838,-0.1539430171251297,-0.2222888469696045,-0.6218541264533997,0.0005854517221450806,-0.013932079076766968,-0.006121158599853516
2025-09-20T02:20:30Z,0.05212799964272429,0.10904627964046755,0.29461351848695194,-0.19473868608474731,-0.26504215598106384,-0.9443672299385071,0.050068212605614296,0.033736432890384964,0.1479115627423177,0.9871560489474169,-0.13987039029598236,-0.21615290641784668,-0.6091368198394775,0.0031500309705734253,-0.011859357357025146,-0.01311415433883667
2025-09-20T02:20:30Z,0.049154676893466594,0.10571004732373322,0.28258416969195665,-0.19555449485778809,-0.26483139395713806,-0.9442577958106995,0.04883230207324442,0.03173345993128972,0.1418686833902643,0.988170807793748,-0.13566362857818604,-0.2053496241569519,-0.5977733135223389,0.003071308135986328,-0.011419147253036499,-0.015486955642700195
2025-09-20T02:20:30Z,0.046160918897047626,0.10242160953281881,0.2708262676410006,-0.1964009553194046,-0.2645759582519531,-0.9441537261009216,0.047594826919007786,0.02974574631073005,0.13595732346877257,0.9891235574496243,-0.13612201809883118,-0.22126975655555725,-0.584334671497345,-0.0006827563047409058,-0.006550252437591553,-0.00692063570022583
2025-09-20T02:20:30Z,0.04285875488817846,0.0992436265409212,0.25939902130652465,-0.19756335020065308,-0.2643214464187622,-0.9439824819564819,0.04640557956155122,0.02763540061107963,0.13020125438548355,0.9900152808890359,-0.13182683289051056,-0.2306402623653412,-0.5537629723548889,0.0019488632678985596,-0.002118140459060669,-0.005326628684997559
2025-09-20T02:20:30Z,0.039326458411390645,0.09621000643279734,0.24865608663509206,-0.1990317702293396,-0.264018177986145,-0.9437588453292847,0.04527064298276215,0.025449580814526935,0.1247787785284982,0.9908243859236778,-0.12398968636989594,-0.22603175044059753,-0.5234655141830444,0.005434021353721619,-0.004621058702468872,-0.011087417602539062
2025-09-20T02:20:30Z,0.03594145703726981,0.09341109865097402,0.2384513181945731,-0.2004307359457016,-0.26378825306892395,-0.9435270428657532,0.044214594726212815,0.023375141280074157,0.11962754334659789,0.991558238050661,-0.12188376486301422,-0.20368102192878723,-0.4998798370361328,0.009367749094963074,-0.0061130523681640625,-0.020853817462921143
2025-09-20T02:20:30Z,0.03301724481013292,0.09060252557522251,0.2284792901038922,-0.20141223073005676,-0.2634764015674591,-0.9434051513671875,0.04310463379266535,0.021544927953476962,0.11460156504564421,0.9922419864109809,-0.1252855360507965,-0.18929356336593628,-0.4964596629142761,0.008675232529640198,-0.009915083646774292,-0.020055651664733887
2025-09-20T02:20:30Z,0.030092249773642395,0.08771687417235108,0.21863493554975877,-0.20239444077014923,-0.2630445063114166,-0.9433154463768005,0.04193784080856923,0.01972424140088478,0.10963834948333805,0.9928904703101943,-0.13583430647850037,-0.1940518170595169,-0.48410487174987793,0.003684982657432556,-0.0017077922821044922,-0.011220157146453857
2025-09-20T02:20:31Z,0.026894200960862282,0.08457590897880443,0.20931476811766897,-0.20370624959468842,-0.26223528385162354,-0.9432584047317505,0.04063676716109477,0.017777122405239387,0.10492896363999651,0.9934900195787738,-0.14826993644237518,-0.2098427265882492,-0.44825729727745056,0.0012234896421432495,0.0035582780838012695,-0.004894375801086426
2025-09-20T02:20:31Z,0.023264501136472573,0.08140812217101208,0.20066180475786619,-0.20552927255630493,-0.26123249530792236,-0.9431411623954773,0.03932131806124905,0.015639532506599583,0.10054388909394185,0.9940322180314076,-0.1440732777118683,-0.22734740376472473,-0.42323529720306396,0.0036739856004714966,-0.0022683441638946533,-0.004630386829376221
2025-09-20T02:20:31Z,0.01949143942759621,0.0784367099591563,0.19223228348485943,-0.2075147032737732,-0.260348379611969,-0.9429509043693542,0.03809093631152544,0.013455698416685534,0.09627022107970516,0.9945350257420195,-0.1324647068977356,-0.22143471240997314,-0.41660013794898987,0.00927095115184784,-0.011728942394256592,-0.01455676555633545
2025-09-20T02:20:31Z,0.01611992340545143,0.075862495124064,0.18399693375212525,-0.20914503931999207,-0.25977933406829834,-0.9427475929260254,0.03702064356104016,0.01150376664711941,0.09210404840383798,0.9949943564301431,-0.12464568763971329,-0.20625433325767517,-0.4062759280204773,0.009019464254379272,-0.009238213300704956,-0.016342341899871826
2025-09-20T02:20:31Z,0.012727930559936703,0.07331606488395731,0.1757545185642541,-0.21077917516231537,-0.2592243254184723,-0.9425364136695862,0.03594951539754457,0.009551585198663419,0.08793580376493514,0.9954313309467044,-0.11682666838169098,-0.1910739690065384,-0.3959517180919647,0.008771806955337524,-0.0067334771156311035,-0.01813584566116333
2025-09-20T02:20:31Z,0.009536845152331169,0.07093024929509674,0.16806109226861937,-0.21231523156166077,-0.25868529081344604,-0.9423397183418274,0.03493221122542174,0.007724582584608226,0.0840464449850142,0.9958193055126813,-0.11273116618394852,-0.1776757538318634,-0.3692239820957184,0.007615432143211365,-0.002552241086959839,-0.01862621307373047
2025-09-20T02:20:31Z,0.00672108331455582,0.06892977347892983,0.16151095990707878,-0.2137066125869751,-0.2582457363605499,-0.9421457648277283,0.03407464918032194,0.0061272333217252525,0.08073479959594594,0.996134100767222,-0.09906476736068726,-0.17149204015731812,-0.3443987965583801,0.007362961769104004,-0.004916369915008545,-0.017124474048614502
2025-09-20T02:20:31Z,0.003892637875623007,0.06694772387934696,0.15495610120734732,-0.21510019898414612,-0.2578156888484955,-0.9419463872909546,0.033216586799979485,0.004529799018625897,0.07742199822499392,0.9964346032358217,-0.085398368537426,-0.16530832648277283,-0.31957361102104187,0.0071126967668533325,-0.007271081209182739,-0.01562809944152832
2025-09-20T02:20:31Z,0.0010516027365349322,0.06498427098450278,0.14839650032440554,-0.21649591624736786,-0.2573951780796051,-0.9417415857315063,0.03235807238814313,0.0029323017094886952,0.07410808265056629,0.996720814183121,-0.07173196226358414,-0.15912462770938873,-0.2947484254837036,0.006864577531814575,-0.00961613655090332,-0.014137208461761475
2025-09-20T02:20:31Z,-0.0016630151313755932,0.06363718097909855,0.14248086558891931,-0.21789047122001648,-0.25740718841552734,-0.9414166212081909,0.03179167233241082,0.0014354917606318731,0.07111774791322242,0.9969601364856474,-0.05639888718724251,-0.15082073211669922,-0.28508785367012024,0.004938587546348572,-0.012651324272155762,-0.01525890827178955
2025-09-20T02:20:31Z,-0.00417058223566542,0.06263643650594652,0.1368660554528691,-0.21914172172546387,-0.2576737105846405,-0.9410532116889954,0.031382259984964314,6.178481923198995e-05,0.0682808028062917,0.9971724466564584,-0.045904964208602905,-0.13663789629936218,-0.275913268327713,0.006372228264808655,-0.011231958866119385,-0.01678866147994995
2025-09-20T02:20:31Z,-0.006396143643539382,0.061806656879516,0.13131209200554803,-0.22013232111930847,-0.25808197259902954,-0.9407100677490234,0.03104140004003905,-0.0011624523406814193,0.06547862096374621,0.9973703663822482,-0.04306191951036453,-0.12690693140029907,-0.27038297057151794,0.005590945482254028,-0.010350197553634644,-0.016569018363952637
2025-09-20T02:20:31Z,-0.008502204760146877,0.060972237010698586,0.12592815309569558,-0.22103765606880188,-0.2584435045719147,-0.9403985142707825,0.030688084095041247,-0.0023227465381343774,0.06276335127627798,0.9975538391290057,-0.043946921825408936,-0.1186612993478775,-0.26223909854888916,0.004927575588226318,-0.007059544324874878,-0.01602095365524292
2025-09-20T02:20:31Z,-0.010401372626399575,0.06012853561038276,0.12084654019760138,-0.22180300951004028,-0.25872644782066345,-0.940140426158905,0.030318384204809666,-0.0033736479822888805,0.060202359414773636,0.9977199481918876,-0.04672493040561676,-0.10487735271453857,-0.2398180216550827,0.004644617438316345,-0.003506898880004883,-0.016633808612823486
2025-09-20T02:20:31Z,-0.012061404168819099,0.059235467024839346,0.11611265844775373,-0.22240862250328064,-0.2588843107223511,-0.9399538636207581,0.029912743663228908,-0.004299616092147596,0.05781893512192373,0.997869518761902,-0.05003685876727104,-0.09476900100708008,-0.2292894423007965,0.006609007716178894,-0.00728154182434082,-0.016147255897521973
2025-09-20T02:20:31Z,-0.013719972209874675,0.05825167875363669,0.11159340938782573,-0.2230522334575653,-0.2589070200920105,-0.9397951364517212,0.02945811966883066,-0.005222336908440822,0.055543334044665424,0.9980079037704702,-0.04812135919928551,-0.0928318202495575,-0.22891975939273834,0.006292298436164856,-0.013384580612182617,-0.014381885528564453
2025-09-20T02:20:31Z,-0.01516449351022351,0.057387451544802605,0.10689012539080482,-0.2234523743391037,-0.25907662510871887,-0.9396533370018005,0.02905287244694955,-0.006035677823748203,0.05317888174919473,0.9981439671510327,-0.049676600843667984,-0.08832565695047379,-0.2333010584115982,0.006286010146141052,-0.016407668590545654,-0.015574932098388672
2025-09-20T02:20:31Z,-0.016583952537812828,0.056459990981981095,0.10207395396637498,-0.22380147874355316,-0.2592054605484009,-0.9395346641540527,0.0286113644652282,-0.006837877484025906,0.050759001054716556,0.9982775717137039,-0.04757893458008766,-0.08780428767204285,-0.24092593789100647,0.005091637372970581,-0.018598437309265137,-0.012777626514434814
2025-09-20T02:20:31Z,-0.018163306673106637,0.05558676684387984,0.09732469795997573,-0.22430965304374695,-0.2593666911125183,-0.9393689632415771,0.028197348824781105,-0.007715547226335913,0.048370281501190965,0.9984015136538341,-0.047986794263124466,-0.09551207721233368,-0.2339395135641098,0.004027247428894043,-0.015320926904678345,-0.010829508304595947
2025-09-20T02:20:31Z,-0.01974667843384401,0.0547210168521917,0.09257429473695608,-0.2248167097568512,-0.2595304548740387,-0.9392025470733643,0.027783131527285135,-0.008593145192978383,0.045981240230201816,0.9985188043264381,-0.04839465022087097,-0.10321986675262451,-0.22695308923721313,0.0029617249965667725,-0.012040942907333374,-0.00888216495513916
2025-09-20T02:20:31Z,-0.021373917251388114,0.05376972810425681,0.08792752994210361,-0.2253825068473816,-0.25958749651908875,-0.9390511512756348,0.027323628833098478,-0.00949120218909212,0.043644216806778637,0.9986282323955525,-0.05411280319094658,-0.08236682415008545,-0.22777631878852844,0.0074269771575927734,-0.015190482139587402,-0.01603519916534424
2025-09-20T02:20:31Z,-0.02268828961866474,0.052741691602983205,0.08325419587275856,-0.22564511001110077,-0.25957292318344116,-0.9389920830726624,0.026815167167957715,-0.01023290721503981,0.04129907895040885,0.9987344503500454,-0.057267926633358,-0.07602538913488388,-0.23527459800243378,0.00817793607711792,-0.017476022243499756,-0.015841782093048096
2025-09-20T02:20:31Z,-0.023903245458637944,0.05168678973492076,0.07839979082802309,-0.2257722169160843,-0.25956496596336365,-0.938963770866394,0.026287039133904115,-0.010925555763713296,0.038865382836310164,0.9988388308844033,-0.06526029109954834,-0.0791601687669754,-0.2436586320400238,0.009067684412002563,-0.015277445316314697,-0.01419055461883545
2025-09-20T02:20:31Z,-0.02532547720617947,0.05035121775845857,0.07354317564313244,-0.22609080374240875,-0.2592872977256775,-0.9389638304710388,0.025619280896146117,-0.011724464373009249,0.036430172023102766,0.998938918779215,-0.07644958049058914,-0.08354225754737854,-0.23687991499900818,0.006669759750366211,-0.0063388049602508545,-0.014008760452270508
2025-09-20T02:20:31Z,-0.02681999760527848,0.048860772826889054,0.06884233052020092,-0.22650720179080963,-0.25882670283317566,-0.9389905333518982,0.02487263662890269,-0.012557057554681022,0.03407363093815153,0.9990308522495238,-0.08934660255908966,-0.09224992990493774,-0.22008106112480164,0.004732921719551086,-0.0008311569690704346,-0.015131354331970215
2025-09-20T02:20:31Z,-0.02839270594980129,0.047176040843399276,0.06445138980761593,-0.22706075012683868,-0.25811535120010376,-0.9390526413917542,0.02402847702790882,-0.013424696654698476,0.03187326034693082,0.9991128742424593,-0.09083995223045349,-0.08819162100553513,-0.20823177695274353,0.007869139313697815,-0.0022735595703125,-0.014229893684387207
2025-09-20T02:20:31Z,-0.0300009127114169,0.045642452870354074,0.06018286293489858,-0.2276696264743805,-0.25751784443855286,-0.9390692710876465,0.023257530749156107,-0.014302715744989427,0.029733539702275526,0.9991849186536114,-0.0813298374414444,-0.09050902724266052,-0.20858216285705566,0.006901085376739502,-0.008960843086242676,-0.010585010051727295
2025-09-20T02:20:31Z,-0.03163885464808823,0.04424696462925318,0.05588564790001744,-0.22829613089561462,-0.2570522129535675,-0.9390447735786438,0.02255213013987395,-0.015190738192526077,0.027579054328991166,0.9992497473931501,-0.06563812494277954,-0.10042108595371246,-0.21225495636463165,0.005129203200340271,-0.011204719543457031,-0.008875370025634766
2025-09-20T02:20:31Z,-0.03359690880880527,0.04319906680954388,0.05161181399377549,-0.22922217845916748,-0.2569064795970917,-0.9388590455055237,0.022020945940418292,-0.01623094258356674,0.025430711157738296,0.9993022313923425,-0.057832516729831696,-0.11016172915697098,-0.20780101418495178,0.0031807124614715576,-0.010434716939926147,-0.008642733097076416
2025-09-20T02:20:31Z,-0.03571038271457632,0.04220151957256394,0.04735737118651986,-0.23029443621635437,-0.25680041313171387,-0.9386256337165833,0.021512548044366243,-0.01734578898494854,0.023290824156386385,0.9993467404948975,-0.0509210042655468,-0.11826271563768387,-0.20703884959220886,0.003733336925506592,-0.009713321924209595,-0.010458290576934814
2025-09-20T02:20:31Z,-0.03789446779553994,0.041329338293058945,0.04317782512521325,-0.23144453763961792,-0.256794273853302,-0.9383443593978882,0.0210635818778831,-0.01849165980650966,0.021187356856762384,0.9993825471074713,-0.04991801083087921,-0.12162276357412338,-0.20411932468414307,0.003252759575843811,-0.007404118776321411,-0.014100372791290283
2025-09-20T02:20:31Z,-0.040159182865209385,0.04049984935757599,0.039083150637589444,-0.23268486559391022,-0.2568080723285675,-0.9380337595939636,0.02063284899348331,-0.019674709721020065,0.0191259098896888,0.9994105071255864,-0.05218423157930374,-0.12193094938993454,-0.1964498907327652,0.0034875422716140747,-0.004507273435592651,-0.016912102699279785
2025-09-20T02:20:31Z,-0.04236396340409676,0.03967877341619967,0.03523276697110489,-0.23391902446746826,-0.256778746843338,-0.9377347826957703,0.020203586370304477,-0.02082356452030465,0.01718794113296035,0.9994312434014806,-0.04976605251431465,-0.11944199353456497,-0.1773497462272644,0.004742324352264404,-0.0019002556800842285,-0.016630351543426514
2025-09-20T02:20:31Z,-0.044568082668257486,0.038954710832868625,0.03184631552248407,-0.23525038361549377,-0.2567483186721802,-0.9374099969863892,0.019823541225033846,-0.021965115727427126,0.015481596857082482,0.9994422582269905,-0.04147417098283768,-0.120387002825737,-0.16798774898052216,0.003456130623817444,-0.004891157150268555,-0.013899743556976318
2025-09-20T02:20:31Z,-0.0467745547102437,0.03823814400103433,0.028458360767657787,-0.23658104240894318,-0.25672265887260437,-0.9370821118354797,0.019443425171984576,-0.023106557681168528,0.013775180528577947,0.9994489137661591,-0.0331822894513607,-0.12133201211690903,-0.1586257666349411,0.0021692365407943726,-0.007877320051193237,-0.011172294616699219
2025-09-20T02:20:31Z,-0.04904637911135761,0.03787289684093231,0.02537934119813243,-0.23803432285785675,-0.2569679617881775,-0.9366467595100403,0.019239196697611566,-0.02427415918554019,0.01221897074818073,0.9994454213776642,-0.01807554066181183,-0.1204480230808258,-0.14116773009300232,0.002975374460220337,-0.006009727716445923,-0.012834370136260986
2025-09-20T02:20:31Z,-0.05129652998734714,0.03759851081396515,0.022771102871670612,-0.2395678609609604,-0.25720730423927307,-0.9361899495124817,0.01908267875613168,-0.025425309328283057,0.010897494738864566,0.9994350836900664,-0.014850526116788387,-0.1221667006611824,-0.11742827296257019,0.0038727223873138428,-0.0034691989421844482,-0.011202454566955566
2025-09-20T02:20:31Z,-0.053918872215618543,0.037400829331863186,0.020514278919105906,-0.24152447283267975,-0.25745081901550293,-0.935620129108429,0.018967987386773803,-0.026758312290311306,0.009747404399545745,0.9994143773169661,-0.014649135991930962,-0.14858171343803406,-0.104397714138031,0.0030404776334762573,-0.004917562007904053,-0.005855739116668701
2025-09-20T02:20:31Z,-0.056976318895090076,0.037194149673652345,0.01843482342255285,-0.24392512440681458,-0.2576509118080139,-0.9349420070648193,0.018850171921177362,-0.028306838354707476,0.008682276917219687,0.9993837266360928,-0.016493840143084526,-0.16272422671318054,-0.10473296046257019,0.005191192030906677,-0.005694955587387085,-0.009900212287902832
2025-09-20T02:20:31Z,-0.06014134089858038,0.03689589699094853,0.016307090312848,-0.24641427397727966,-0.25777244567871094,-0.9342554807662964,0.018683052525009992,-0.029909688239140586,0.007593773883151595,0.9993490416266513,-0.026881003752350807,-0.16222375631332397,-0.09669790416955948,0.0084000825881958,-0.0024535059928894043,-0.015318214893341064
2025-09-20T02:20:31Z,-0.06316981891821614,0.03643361285740972,0.01438178327255358,-0.24882102012634277,-0.25769925117492676,-0.9336376190185547,0.01843329091029666,-0.03144268371092114,0.006610817330104593,0.999313602474125,-0.0285020899027586,-0.15003667771816254,-0.09243545681238174,0.013803347945213318,-0.005659371614456177,-0.018116772174835205
2025-09-20T02:20:31Z,-0.0660477314428636,0.03598762297513924,0.012475174623989692,-0.25108903646469116,-0.2576371431350708,-0.933047354221344,0.018188598555762492,-0.032899708268399865,0.005639063381845422,0.9992771698323268,-0.025083208456635475,-0.13627420365810394,-0.09667151421308517,0.013073146343231201,-0.008250266313552856,-0.01991981267929077
2025-09-20T02:20:31Z,-0.06862220104023731,0.0356268261239027,0.010567902221943636,-0.2530704140663147,-0.25765499472618103,-0.9325069785118103,0.017982972943832613,-0.0342043854658143,0.004668941949444366,0.9992420778652837,-0.01748865656554699,-0.12381700426340103,-0.08857418596744537,0.01255100965499878,-0.00814393162727356,-0.021530866622924805
2025-09-20T02:20:31Z,-0.07078575700576424,0.03540424181226439,0.008748747903000726,-0.2546842396259308,-0.25778645277023315,-0.9320311546325684,0.01784470720553171,-0.03530222626144011,0.0037445761973643106,0.9992102788589421,-0.015667101368308067,-0.1088302806019783,-0.08622477203607559,0.012858957052230835,-0.010121196508407593,-0.023629724979400635
2025-09-20T02:20:31Z,-0.07269524434176597,0.03516733902958621,0.007045585304501844,-0.25608620047569275,-0.2578818202018738,-0.9316205382347107,0.01769903811834438,-0.03627187729184179,0.0028809673971930683,0.9991810462760304,-0.021289465948939323,-0.08729889988899231,-0.08329421281814575,0.011233165860176086,-0.008521199226379395,-0.024142026901245117
2025-09-20T02:20:31Z,-0.07441428590422038,0.0347738396964196,0.005434355565890775,-0.25733330845832825,-0.25781092047691345,-0.9312964677810669,0.01747500583177299,-0.037145589549236635,0.002068150042191954,0.9991549518829687,-0.021370375528931618,-0.08603799343109131,-0.07609156519174576,0.0066477954387664795,-0.00682520866394043,-0.018385887145996094
2025-09-20T02:20:31Z,-0.0760075142972951,0.034523258973337245,0.003913728045930679,-0.2584799528121948,-0.25785788893699646,-0.9309658408164978,0.017322615175130944,-0.037955124094341736,0.0012993434391937412,0.9991284435451778,-0.014858169481158257,-0.08722935616970062,-0.07115068286657333,0.004467487335205078,-0.006726861000061035,-0.014675378799438477
2025-09-20T02:20:31Z,-0.07776214580643094,0.034294389843527374,0.0025253363762281467,-0.2598053514957428,-0.2579002380371094,-0.9305850863456726,0.017182456882675928,-0.03884389890449081,0.0005950278869455438,0.9990973519640158,-0.011890463531017303,-0.09229647368192673,-0.06310927122831345,0.004663378000259399,-0.0075836181640625,-0.01243525743484497
2025-09-20T02:20:31Z,-0.0793778059536726,0.034208589077088576,0.001318979659078416,-0.2610386312007904,-0.2580438554286957,-0.9302000999450684,0.017116152421406974,-0.039661402774922555,-1.9765266197693206e-05,0.9990665196460012,-0.009534934535622597,-0.08038569241762161,-0.05782127380371094,0.0055332183837890625,-0.00787779688835144,-0.015416562557220459
2025-09-20T02:20:31Z,-0.08099355450345747,0.034124756798468006,0.00011249339027929235,-0.26227113604545593,-0.25818905234336853,-0.929813027381897,0.017049839900563662,-0.04047885951595301,-0.0006345566909968927,0.9990346560276371,-0.007179404608905315,-0.0684749111533165,-0.05253327637910843,0.006402194499969482,-0.008170366287231445,-0.018399834632873535
2025-09-20T02:20:32Z,-0.08224706617344511,0.03411552631901523,-0.0008257535989656975,-0.2632250189781189,-0.2583547830581665,-0.9294973611831665,0.017025543136584543,-0.041112997900545026,-0.001113711599108767,0.9990087457978768,-0.0033679441548883915,-0.05860907584428787,-0.039622724056243896,0.004447902552783489,-0.007206039037555456,-0.018264740705490112
2025-09-20T02:20:32Z,-0.08331968844970192,0.034054878618029485,-0.001641541664049681,-0.2640390694141388,-0.25844883918762207,-0.9292402863502502,0.01697766012986027,-0.04165570811289948,-0.0015290606475539916,0.9989865533436042,-0.007179910317063332,-0.05734805390238762,-0.040053591132164,0.003835141658782959,-0.0072401463985443115,-0.016279399394989014
2025-09-20T02:20:32Z,-0.08441122483996562,0.033915922327998185,-0.002489786675599092,-0.2648646831512451,-0.25847452878952026,-0.9289981722831726,0.016889516860815808,-0.042208076686485456,-0.0019590795292784772,0.9989641157937658,-0.012082095257937908,-0.055410560220479965,-0.04335050284862518,0.003391176462173462,-0.008965551853179932,-0.01572287082672119
2025-09-20T02:20:32Z,-0.08540924601874277,0.033684549391556164,-0.0033852029361864607,-0.265594482421875,-0.2584211826324463,-0.9288046360015869,0.01675385114184422,-0.042714010419998547,-0.0024098072529619738,0.998943896023677,-0.014743397012352943,-0.053093958646059036,-0.04358427971601486,0.00274735689163208,-0.008727818727493286,-0.015193760395050049
2025-09-20T02:20:32Z,-0.08646554022449793,0.03346090680352416,-0.004272932091534334,-0.2663796842098236,-0.25837355852127075,-0.9285929799079895,0.016621679692350146,-0.04324886706142685,-0.0028572127199789216,0.9989219307633843,-0.012565994635224342,-0.05117836222052574,-0.04114997014403343,0.0027954578399658203,-0.009370863437652588,-0.014829397201538086
2025-09-20T02:20:32Z,-0.08739243955579254,0.033282735451220014,-0.005160229734750416,-0.2670435309410095,-0.25836873054504395,-0.9284036755561829,0.016511972033979753,-0.043719019132866965,-0.0033041901950703985,0.9989018586857407,-0.008546882309019566,-0.04479721188545227,-0.04331548884510994,0.0041866302490234375,-0.012305259704589844,-0.015364289283752441
2025-09-20T02:20:32Z,-0.08825117792558573,0.03322344647253122,-0.006142765667225677,-0.2676195502281189,-0.2584940493106842,-0.9282028675079346,0.016459250383770656,-0.04415595080112754,-0.0038006927095588583,0.9988817124198067,-0.004578055813908577,-0.04357409477233887,-0.05184616148471832,0.004011660814285278,-0.015078336000442505,-0.015189409255981445
2025-09-20T02:20:32Z,-0.08907063760632046,0.03325939535121208,-0.0073970575012609575,-0.2680950164794922,-0.25875958800315857,-0.9279916286468506,0.016447693460502913,-0.04457558394309099,-0.004434667712178447,0.9988606642515746,-0.002999295713379979,-0.0471874475479126,-0.06723468750715256,0.002275824546813965,-0.01702907681465149,-0.013428032398223877
2025-09-20T02:20:32Z,-0.08990115296945457,0.03334408724819017,-0.009355280478844612,-0.2684193551540375,-0.2592005431652069,-0.9277748465538025,0.016444088868900426,-0.04500661116355982,-0.005421372193631982,0.9988365380760773,-0.006329341791570187,-0.044058747589588165,-0.08230346441268921,0.003296196460723877,-0.015431880950927734,-0.015790939331054688
2025-09-20T02:20:32Z,-0.09073153041775878,0.03343045732754781,-0.011313452245809224,-0.2687426805496216,-0.25964221358299255,-0.9275577068328857,0.016440490120167617,-0.045437596832982145,-0.0064080783484911155,0.9988113225290958,-0.009659388102591038,-0.040930043905973434,-0.09737224876880646,0.00431552529335022,-0.0138339102268219,-0.018154144287109375
2025-09-20T02:20:32Z,-0.09156172991654138,0.033518405622600826,-0.013271548408459349,-0.26906487345695496,-0.2600844204425812,-0.9273403882980347,0.016436851104261706,-0.04586853019212365,-0.007394772383109509,0.9987848297974656,-0.012989433482289314,-0.037801343947649,-0.11244102567434311,0.005333811044692993,-0.012235432863235474,-0.02051752805709839
2025-09-20T02:20:32Z,-0.09219702719853576,0.033473620758045754,-0.015530941508703955,-0.26913997530937195,-0.2604549527168274,-0.9272145628929138,0.01635995011308019,-0.046204171131280704,-0.008527266843677942,0.9987615849645148,-0.019733240827918053,-0.02617390640079975,-0.1220046877861023,0.00718960165977478,-0.011573940515518188,-0.02273702621459961
2025-09-20T02:20:32Z,-0.09249772934903498,0.03334977238047753,-0.018437685432643305,-0.26875776052474976,-0.2608671188354492,-0.9272095561027527,0.016229433724211144,-0.04637754060719805,-0.009978426530437332,0.9987422092198917,-0.023594798520207405,-0.01303779985755682,-0.16579435765743256,0.00748288631439209,-0.022284090518951416,-0.02236628532409668
2025-09-20T02:20:32Z,-0.0926518716239295,0.03326818253143925,-0.022354210947883174,-0.2680056095123291,-0.2615002989768982,-0.9272489547729492,0.016096920167629505,-0.04648578186965735,-0.011933568762036172,0.9987178687626979,-0.02439109794795513,-0.017358973622322083,-0.22403176128864288,0.0033026933670043945,-0.027724355459213257,-0.015038788318634033
2025-09-20T02:20:32Z,-0.09307498864731534,0.033322582063072544,-0.027471606087712642,-0.2672203779220581,-0.262474924325943,-0.927200198173523,0.016002023102477784,-0.04673844771648452,-0.014493583018199129,0.998673736065021,-0.019582221284508705,-0.04134845361113548,-0.28091153502464294,-0.0017425119876861572,-0.02842235565185547,-0.007534980773925781
2025-09-20T02:20:32Z,-0.09381437463397457,0.03352250860453665,-0.03371469397469092,-0.26645970344543457,-0.2637823820114136,-0.9270480275154114,0.015949364469821245,-0.04715895802846316,-0.017621430861853988,0.9986044850340254,-0.018924258649349213,-0.05532807856798172,-0.33892056345939636,-0.001750856637954712,-0.02917701005935669,-0.00865793228149414
2025-09-20T02:20:32Z,-0.0947937275794847,0.03384373931317085,-0.04115139984368258,-0.26563379168510437,-0.2654067575931549,-0.9268214106559753,0.015923832532904223,-0.04771006004240635,-0.0213497375778262,0.9985059919323144,-0.021419236436486244,-0.06842564046382904,-0.39938050508499146,-0.002017468214035034,-0.029458701610565186,-0.010028302669525146
2025-09-20T02:20:32Z,-0.0959509181410492,0.03420532333404609,-0.0497582971875202,-0.264687716960907,-0.267260879278183,-0.9265592098236084,0.0158840320588957,-0.04836015446772199,-0.025664226966717704,0.9983737625354904,-0.02821538783609867,-0.07756286859512329,-0.45366692543029785,-0.0010568201541900635,-0.028245657682418823,-0.01182258129119873
2025-09-20T02:20:32Z,-0.09717729892453884,0.03453102245510642,-0.05956948761351468,-0.2635095715522766,-0.26927122473716736,-0.9263129830360413,0.01579042887116695,-0.04905430016341013,-0.0305789272792386,0.9982029288192754,-0.03643922507762909,-0.08092650771141052,-0.522499680519104,0.00019082427024841309,-0.03199201822280884,-0.01401740312576294
2025-09-20T02:20:32Z,-0.0985486404886646,0.03484579104660595,-0.07071440433666545,-0.26213231682777405,-0.2714748978614807,-0.9260604977607727,0.015649122680342166,-0.049831246076391965,-0.0361591458967298,0.9979801974418422,-0.042824890464544296,-0.09112579375505447,-0.5873941779136658,-0.0023428499698638916,-0.03023761510848999,-0.01339048147201538
2025-09-20T02:20:32Z,-0.10001438769212687,0.03518017195165011,-0.08302074548449627,-0.2605423331260681,-0.27386122941970825,-0.9258065223693848,0.015478021980006633,-0.050664577741297595,-0.04231862386743554,0.9976987132209382,-0.04752376675605774,-0.09704335778951645,-0.6350848078727722,-0.004141658544540405,-0.02526724338531494,-0.014310717582702637
2025-09-20T02:20:32Z,-0.10146457656604367,0.035546355222517485,-0.0962452306427845,-0.25868967175483704,-0.2763914167881012,-0.9255741238594055,0.015289832373810763,-0.051497642293345434,-0.048934764030739764,0.9973562585693385,-0.048790380358695984,-0.0981392115354538,-0.6780315041542053,-0.004424005746841431,-0.02362331748008728,-0.015335381031036377
2025-09-20T02:20:32Z,-0.10281777691202094,0.036044572785615986,-0.11032915353614707,-0.25650516152381897,-0.2791418433189392,-0.9253566861152649,0.015137322147426236,-0.05229207095872444,-0.055979458454085654,0.9969466346918884,-0.046866387128829956,-0.09050275385379791,-0.7203388810157776,-0.002678781747817993,-0.025581330060958862,-0.01641988754272461
2025-09-20T02:20:32Z,-0.10404755295296425,0.036728570462958285,-0.12544553482472487,-0.25391480326652527,-0.2821809649467468,-0.9251492619514465,0.015043432089584556,-0.053038789829730155,-0.06353930831682059,0.9964553656744134,-0.04233767092227936,-0.09199433028697968,-0.7832027077674866,-0.004593521356582642,-0.031033098697662354,-0.013755619525909424
2025-09-20T02:20:32Z,-0.10544691206566244,0.03762901987478873,-0.1417093070650439,-0.25115343928337097,-0.28554314374923706,-0.9248713850975037,0.015009929815454284,-0.05388755071180087,-0.0716734551034626,0.995858304661901,-0.03926565870642662,-0.11032412946224213,-0.8360739946365356,-0.008718758821487427,-0.025845110416412354,-0.008452057838439941
2025-09-20T02:20:32Z,-0.10718399585030326,0.038654970704158687,-0.15881158101501572,-0.2484489381313324,-0.28908175230026245,-0.9245024919509888,0.014989509815348094,-0.0549183950163412,-0.08022567141402882,0.9951497795707999,-0.040275804698467255,-0.12741997838020325,-0.8752328157424927,-0.009303957223892212,-0.02009984850883484,-0.008788764476776123
2025-09-20T02:20:32Z,-0.10914911330058374,0.03977955607242539,-0.17670293710188917,-0.2457076907157898,-0.2927526831626892,-0.9240798950195312,0.014969268283802536,-0.056076241647296084,-0.08916840911781507,0.9943240558739082,-0.03957743942737579,-0.1391940712928772,-0.910317599773407,-0.008579239249229431,-0.016676753759384155,-0.010134339332580566
2025-09-20T02:20:32Z,-0.11144470196398179,0.041143645407618765,-0.19567425929262705,-0.24293991923332214,-0.2967175841331482,-0.9235469102859497,0.015001170913060085,-0.05742167204296946,-0.09864903442255255,0.9933509046753284,-0.03439013659954071,-0.15100505948066711,-0.9418255090713501,-0.008465573191642761,-0.0160999596118927,-0.00914156436920166
2025-09-20T02:20:32Z,-0.11371408446156524,0.042550985909282045,-0.21464352489369196,-0.24009571969509125,-0.300629585981369,-0.9230254292488098,0.015031677893941072,-0.058761769250520894,-0.10812053301398851,0.9922857343330391,-0.029202831909060478,-0.16281603276729584,-0.9733334183692932,-0.008428364992141724,-0.01557612419128418,-0.008137404918670654
2025-09-20T02:20:32Z,-0.1162577657179683,0.04421558872480604,-0.2342261781796168,-0.23728549480438232,-0.3047688603401184,-0.9223944544792175,0.015130869452549031,-0.06026272781196144,-0.11789518647486943,0.9910802586041421,-0.024711640551686287,-0.17727050185203552,-0.9924831390380859,-0.008402600884437561,-0.01051563024520874,-0.008706867694854736
2025-09-20T02:20:32Z,-0.11893979493154985,0.04610692123693784,-0.2542302149381037,-0.23443180322647095,-0.30907201766967773,-0.9216920137405396,0.015292276685099894,-0.06185678653294625,-0.12787433382718466,0.989741318540311,-0.021032899618148804,-0.18835106492042542,-1.0088030099868774,-0.006994813680648804,-0.00822553038597107,-0.010064661502838135
2025-09-20T02:20:32Z,-0.12186130643642282,0.04806583695405607,-0.27439041421499755,-0.2317025363445282,-0.31334972381591797,-0.9209374785423279,0.01543499265220934,-0.06358381636988854,-0.13792155884826954,0.9882794792512914,-0.023437093943357468,-0.19558501243591309,-1.0110878944396973,-0.004809468984603882,-0.00289231538772583,-0.01168912649154663
2025-09-20T02:20:32Z,-0.12483324053630811,0.050017074479022684,-0.2945972158711486,-0.22895650565624237,-0.317515105009079,-0.9201973080635071,0.015535117238414149,-0.06534423999242771,-0.14797782730502837,0.9867072327590639,-0.02798084355890751,-0.2035764753818512,-1.0140624046325684,-0.004839479923248291,-0.0009143054485321045,-0.012803375720977783
2025-09-20T02:20:32Z,-0.12795721602960988,0.05199720019525019,-0.3147704514233359,-0.22630944848060608,-0.3215923607349396,-0.9194359183311462,0.01560430616040758,-0.06718955391879027,-0.1580042456389928,0.9850262677973876,-0.031401172280311584,-0.20928671956062317,-1.0052553415298462,-0.0065075308084487915,0.003911644220352173,-0.013017594814300537
2025-09-20T02:20:32Z,-0.1312203249406249,0.053899793888683094,-0.3346218064081004,-0.22383469343185425,-0.3254516124725342,-0.9186834692955017,0.015598837001068469,-0.0691019202520454,-0.16785480080421025,0.983263091623332,-0.031404025852680206,-0.22070667147636414,-0.9824479222297668,-0.007157608866691589,0.007992714643478394,-0.01266336441040039
2025-09-20T02:20:32Z,-0.13459347399377758,0.055786935782206316,-0.3538683505261067,-0.22158481180667877,-0.3291287124156952,-0.9179185628890991,0.015560767617106269,-0.07106820420990252,-0.17739191532468443,0.9814475349530317,-0.03343924880027771,-0.22441478073596954,-0.9463084936141968,-0.003269776701927185,0.011213749647140503,-0.01308286190032959
2025-09-20T02:20:32Z,-0.13807033004872318,0.05767332017587493,-0.3725629150307951,-0.21954388916492462,-0.3326510787010193,-0.9171388745307922,0.015496099630648049,-0.07308604512073993,-0.18664248319543547,0.9795829931274306,-0.029349137097597122,-0.22314685583114624,-0.9298854470252991,-0.0005938112735748291,0.0042386651039123535,-0.01507580280303955
2025-09-20T02:20:32Z,-0.1414054415446243,0.059751988282636476,-0.39110184096129647,-0.2173723727464676,-0.3362419307231903,-0.9163463711738586,0.015508548919389756,-0.07505623623524542,-0.19580505215416058,0.977643326405144,-0.020516399294137955,-0.2196279913187027,-0.9253000617027283,-0.0006673485040664673,-0.0007125437259674072,-0.01607614755630493
2025-09-20T02:20:32Z,-0.14463359995506886,0.06204511701997467,-0.4095199955763031,-0.21509334444999695,-0.33992618322372437,-0.9155244827270508,0.015605792313924092,-0.0770007344631468,-0.20489745708603507,0.9756251585024258,-0.0119523536413908,-0.22328834235668182,-0.9188054800033569,-0.0036186426877975464,0.001622706651687622,-0.013539016246795654
2025-09-20T02:20:32Z,-0.14802397183140978,0.064435210428267,-0.4276127255549469,-0.21301792562007904,-0.34357911348342896,-0.9146456718444824,0.015710926449516247,-0.07903932667440905,-0.2138181173849673,0.9735438477062296,-0.009685151278972626,-0.23046992719173431,-0.8949034214019775,-0.00418303906917572,0.007079422473907471,-0.01278221607208252
2025-09-20T02:20:32Z,-0.15149842533718896,0.06685426476080254,-0.4452783802394619,-0.21110917627811432,-0.3471343517303467,-0.9137454032897949,0.01580210502916911,-0.08112604470006038,-0.22251504506581307,0.9714194429274567,-0.00985686294734478,-0.22938311100006104,-0.8809018135070801,-0.00010898709297180176,0.0050817131996154785,-0.01462101936340332
2025-09-20T02:20:32Z,-0.1548417526270236,0.0693791476265552,-0.4627372201341916,-0.20910710096359253,-0.3506840765476227,-0.9128498435020447,0.015932348498269733,-0.08316657971567529,-0.23109645700753975,0.9692387210547353,-0.004437609575688839,-0.22291994094848633,-0.8748418092727661,0.0012216717004776,0.0020544230937957764,-0.01646798849105835
2025-09-20T02:20:32Z,-0.15806085799107225,0.07201177033843487,-0.4796523615309642,-0.20711547136306763,-0.3542119860649109,-0.9119413495063782,0.01611796064524519,-0.08516301214372127,-0.23939956519911404,0.967044543967291,-0.0029186271131038666,-0.22495688498020172,-0.846439003944397,0.000494837760925293,0.008501321077346802,-0.015263795852661133
2025-09-20T02:20:32Z,-0.16123549191309322,0.07469829213250422,-0.49656218052879486,-0.2050599455833435,-0.35770532488822937,-0.9110418558120728,0.01630230591299249,-0.08715282192788232,-0.24768402820852473,0.964775177001815,-0.0013996444176882505,-0.2269938439130783,-0.8180361986160278,-0.00029593706130981445,0.014913707971572876,-0.014050602912902832
2025-09-20T02:20:32Z,-0.16440353967624824,0.07724769787546426,-0.5125392360722658,-0.20325180888175964,-0.36093834042549133,-0.9101715087890625,0.01643004919964908,-0.08912314008201129,-0.2554965198837781,0.9625531441522561,-0.0021635806187987328,-0.21894358098506927,-0.7772566676139832,0.0027852803468704224,0.016844511032104492,-0.016298353672027588
2025-09-20T02:20:32Z,-0.1673736850887833,0.07968528389428653,-0.5277859342260215,-0.2014617770910263,-0.36395713686943054,-0.909367024898529,0.01653245111765931,-0.09098492323847436,-0.26293584597727054,0.9603713543075664,-0.0048067313618958,-0.20422667264938354,-0.7487037181854248,0.003893345594406128,0.011561483144760132,-0.019486546516418457
2025-09-20T02:20:32Z,-0.17027684519409683,0.08200352605677245,-0.5424591851113362,-0.1997678279876709,-0.3667711615562439,-0.9086098074913025,0.016585442425504814,-0.09280022150170546,-0.27007972080415804,0.9582118398996918,-0.010147962719202042,-0.20196209847927094,-0.7243622541427612,0.003314390778541565,0.00904160737991333,-0.0174330472946167
2025-09-20T02:20:32Z,-0.17323409243426705,0.08415822280888328,-0.5565502437787279,-0.19828778505325317,-0.369346559047699,-0.9078904390335083,0.016554066207376244,-0.09461951475246236,-0.27692462047208,0.9560783405280553,-0.017479190602898598,-0.20866350829601288,-0.697606086730957,0.0030612796545028687,0.011613249778747559,-0.016409575939178467
2025-09-20T02:20:32Z,-0.17629963969146423,0.0860368328612692,-0.5701371340207478,-0.1970580667257309,-0.3715890944004059,-0.9072428941726685,0.0163745431637695,-0.09645172788530706,-0.28350539331109736,0.9539672688648606,-0.02821384184062481,-0.2134200632572174,-0.6657219529151917,0.0033526867628097534,0.015224665403366089,-0.019653797149658203
2025-09-20T02:20:32Z,-0.17939581628645482,0.08768763051756844,-0.5831344305122632,-0.19603188335895538,-0.3735472857952118,-0.9066608548164368,0.016086461884084403,-0.09826294278343126,-0.2897833855862189,0.951898683435218,-0.0348750576376915,-0.21008998155593872,-0.6389327645301819,0.0052681565284729,0.015108376741409302,-0.020634949207305908
2025-09-20T02:20:33Z,-0.18249083128862648,0.08921192180008576,-0.5956897679265697,-0.19513331353664398,-0.37532612681388855,-0.9061198830604553,0.01573733734220473,-0.10005167688278259,-0.2958334047381866,0.9498549734884355,-0.03414768725633621,-0.2120244950056076,-0.6152998805046082,0.004949286580085754,0.01399773359298706,-0.019527792930603027
2025-09-20T02:20:33Z,-0.18562920886349368,0.09071107283332625,-0.6077640984135535,-0.19440829753875732,-0.3770236074924469,-0.9055708646774292,0.015372167962535817,-0.10185252697415649,-0.30164195577650627,0.9478406215747983,-0.03541947528719902,-0.2051668018102646,-0.5914852023124695,0.005169898271560669,0.015075206756591797,-0.02121913433074951
2025-09-20T02:20:33Z,-0.18860702908177798,0.0920945875294816,-0.6193052209662974,-0.19369445741176605,-0.3785599172115326,-0.9050827622413635,0.014983049788166301,-0.10355486649528312,-0.30718053874836915,0.9458815703722288,-0.03999998793005943,-0.19825802743434906,-0.5582221150398254,0.002731993794441223,0.020104020833969116,-0.022313356399536133
2025-09-20T02:20:33Z,-0.1915061331110534,0.09326735340435595,-0.6300545373036537,-0.19314831495285034,-0.3798481822013855,-0.904659628868103,0.014528792365329129,-0.10518067330715142,-0.31232532230544513,0.9440226391823334,-0.03942520171403885,-0.19266879558563232,-0.513859748840332,0.001844257116317749,0.021478891372680664,-0.020408689975738525
2025-09-20T02:20:33Z,-0.19444033104499267,0.09442190051645749,-0.640000597978495,-0.19286327064037323,-0.381073921918869,-0.9042048454284668,0.01408604666861197,-0.10681222936228167,-0.3170809542233809,0.9422591537470546,-0.02922791615128517,-0.19234299659729004,-0.4794943332672119,0.002257734537124634,0.017787396907806396,-0.01896202564239502
2025-09-20T02:20:33Z,-0.1973328295437012,0.09572963088921574,-0.649364901468291,-0.1926937699317932,-0.3824050724506378,-0.903678834438324,0.013737781626673549,-0.10844192041694017,-0.3215596947044675,0.9405587919380293,-0.02103995531797409,-0.18696600198745728,-0.4578680992126465,0.005738988518714905,0.015005022287368774,-0.02044510841369629
2025-09-20T02:20:33Z,-0.20005740205106046,0.09700556890685288,-0.658241762569828,-0.19251254200935364,-0.3836762607097626,-0.9031785130500793,0.013413587930785759,-0.10998310637022787,-0.32579921653168464,0.9389241141568097,-0.022169016301631927,-0.17423398792743683,-0.4304209053516388,0.005219161510467529,0.018319249153137207,-0.022877395153045654
2025-09-20T02:20:33Z,-0.20275823660880038,0.09791071120274396,-0.666002689762032,-0.19265660643577576,-0.38457414507865906,-0.9027658104896545,0.01296754743711868,-0.11144534340124504,-0.329493514778424,0.9374676870372349,-0.02645535208284855,-0.16879405081272125,-0.3918401002883911,0.004858136177062988,0.01880669593811035,-0.02315884828567505
2025-09-20T02:20:33Z,-0.2054521584447865,0.0988366845506519,-0.6737618291047903,-0.19279226660728455,-0.3854734003543854,-0.9023532271385193,0.012521275051339827,-0.11290555444327217,-0.3331818442413073,0.9359942910268187,-0.03074168786406517,-0.16335412859916687,-0.35325926542282104,0.004488706588745117,0.019295483827590942,-0.023440182209014893
2025-09-20T02:20:33Z,-0.2080742488706225,0.09964060872657474,-0.6807463222799083,-0.19309376180171967,-0.38624024391174316,-0.9019607901573181,0.012062874773759669,-0.11430544558395124,-0.3364968252559329,0.9346435123938773,-0.02665511704981327,-0.1583550125360489,-0.32828208804130554,0.0033049285411834717,0.014643639326095581,-0.022777795791625977
2025-09-20T02:20:33Z,-0.2103930575647246,0.10036995899798931,-0.6869785361966347,-0.1933424174785614,-0.3869233727455139,-0.9016146659851074,0.011654800305915881,-0.11554499567798371,-0.3394508960312407,0.9334272295360856,-0.02787124738097191,-0.14550036191940308,-0.3071643114089966,0.00521540641784668,0.016072839498519897,-0.02491307258605957
2025-09-20T02:20:33Z,-0.2127074965827847,0.10111365209217105,-0.6932095260108483,-0.19358587265014648,-0.38760823011398315,-0.9012681841850281,0.011246566057590194,-0.11678319479541563,-0.3424009260990468,0.9321998720115107,-0.029087377712130547,-0.13264571130275726,-0.2860465347766876,0.007120698690414429,0.017503798007965088,-0.027048707008361816
2025-09-20T02:20:33Z,-0.21474184905158794,0.10163199970827948,-0.6987823178724526,-0.19378338754177094,-0.3880757689476013,-0.9010245203971863,0.010812480786139235,-0.11784801751106115,-0.3450295654097391,0.9311012592741569,-0.033630695194005966,-0.11833768337965012,-0.25534260272979736,0.005489364266395569,0.019936740398406982,-0.02636885643005371
2025-09-20T02:20:33Z,-0.2165272920969198,0.10193113440348547,-0.7036163170212761,-0.1939859837293625,-0.3883351683616638,-0.9008691310882568,0.010357267412400515,-0.11875463293256974,-0.3473008433381794,0.9301462910826569,-0.03313133865594864,-0.10378638654947281,-0.21589714288711548,0.005380302667617798,0.020478367805480957,-0.024684011936187744
2025-09-20T02:20:33Z,-0.21806856250327397,0.10218709118294748,-0.7077232019825525,-0.1941801756620407,-0.38855189085006714,-0.9007338881492615,0.009963701375459641,-0.11953522608042594,-0.3492285955014682,0.9293284717715101,-0.024310527369379997,-0.09691543877124786,-0.18511711061000824,0.004711553454399109,0.01524120569229126,-0.021021366119384766
2025-09-20T02:20:33Z,-0.2195827781616447,0.10245885651468443,-0.711290064102692,-0.19450297951698303,-0.38878166675567627,-0.9005650281906128,0.009611553093286698,-0.1203021552588954,-0.35090425079828974,0.9286017236792068,-0.01944655552506447,-0.09218817949295044,-0.16219985485076904,0.005251795053482056,0.01357373595237732,-0.01990300416946411
2025-09-20T02:20:33Z,-0.221033209505542,0.10261675125522973,-0.7143563081576105,-0.19492092728614807,-0.38890644907951355,-0.9004207849502563,0.009245160762215996,-0.12101674398686116,-0.35234098384355766,0.9279683415254703,-0.02480011060833931,-0.08158490806818008,-0.1341141164302826,0.007150411605834961,0.01692977547645569,-0.020819246768951416
2025-09-20T02:20:33Z,-0.22227515192585937,0.10254718790262864,-0.7169254693146903,-0.1953125149011612,-0.3888229727745056,-0.9003720283508301,0.00883776867525547,-0.12159252490551663,-0.35353532053803705,0.9274426995465588,-0.03260469809174538,-0.06747400760650635,-0.11024019867181778,0.008252948522567749,0.015443354845046997,-0.023604929447174072
2025-09-20T02:20:33Z,-0.22324317435189284,0.10227671353777823,-0.7190717755089241,-0.19559554755687714,-0.3885560631752014,-0.9004257917404175,0.00840976835866419,-0.12200413413209091,-0.35452292083436604,0.9270155113625174,-0.03319060057401657,-0.0543699711561203,-0.09054368734359741,0.007083341479301453,0.010929137468338013,-0.021416544914245605
2025-09-20T02:20:33Z,-0.22420996175090285,0.10199285348199333,-0.7206751055003353,-0.19603365659713745,-0.38828039169311523,-0.9004493951797485,0.008008130969568532,-0.12240989091853058,-0.35525763513573444,0.9266842621471069,-0.03136563301086426,-0.05807053670287132,-0.07354916632175446,0.005456864833831787,0.010743588209152222,-0.01961725950241089
2025-09-20T02:20:33Z,-0.2251771659829688,0.10171054556425828,-0.7222787417062884,-0.1964721828699112,-0.38800540566444397,-0.9004724025726318,0.007606486679541973,-0.12281552645007203,-0.3559920423708186,0.926352081170913,-0.029540663585066795,-0.061771102249622345,-0.0565546415746212,0.003830850124359131,0.010558724403381348,-0.017818570137023926
2025-09-20T02:20:33Z,-0.2261644436124437,0.10127190367677849,-0.7233239352889429,-0.1971016228199005,-0.38759100437164307,-0.9005132913589478,0.0071623259042105465,-0.12320082930049872,-0.35646057803058584,0.9261242461219954,-0.030749978497624397,-0.05209876596927643,-0.02525770664215088,0.005567267537117004,0.015412241220474243,-0.020610392093658447
2025-09-20T02:20:33Z,-0.22685895424482014,0.100780999045342,-0.7235214204744203,-0.19771352410316467,-0.3871364891529083,-0.9005746245384216,0.006798047676626172,-0.12343823106372122,-0.3565329013099385,0.926067506095456,-0.02251182496547699,-0.03988071531057358,-0.010427756235003471,0.005577564239501953,0.01006460189819336,-0.02089059352874756
2025-09-20T02:20:33Z,-0.22755353296408182,0.1002902613579264,-0.7237192860068413,-0.1983254998922348,-0.38668203353881836,-0.900635302066803,0.006433778930658729,-0.12367561524054338,-0.3566051754819026,0.9260105821487196,-0.014273672364652157,-0.027662664651870728,0.004402192309498787,0.005587920546531677,0.004717022180557251,-0.021171391010284424
2025-09-20T02:20:33Z,-0.22816159948556605,0.09995421813863256,-0.7235892813323158,-0.1989394873380661,-0.3863734006881714,-0.900632381439209,0.0061771498218451066,-0.12389862060604377,-0.35653201582620553,0.926010684854142,-0.006752112880349159,-0.031733438372612,0.01603568345308304,0.004148274660110474,0.003906428813934326,-0.01766514778137207
2025-09-20T02:20:33Z,-0.22886262565658413,0.09968587830767132,-0.7232139030983423,-0.19970114529132843,-0.38612961769104004,-0.9005683660507202,0.00595070976721175,-0.12417566863391825,-0.3563483941669115,0.9260457609966123,-0.005175061523914337,-0.03080207109451294,0.03202791512012482,0.003701150417327881,0.00758284330368042,-0.018428564071655273
2025-09-20T02:20:33Z,-0.22950519523773308,0.09930258732575829,-0.7222978171948079,-0.20057407021522522,-0.3857848346233368,-0.9005221128463745,0.005714960955439924,-0.12440433812840244,-0.355908955689639,0.9261854856091202,-0.0067991469986736774,-0.02585521712899208,0.06035839021205902,0.004790797829627991,0.012966156005859375,-0.019115447998046875
2025-09-20T02:20:33Z,-0.2300022353152894,0.0988055513044806,-0.7209275462794712,-0.20145519077777863,-0.38533899188041687,-0.9005163311958313,0.0054806744681017506,-0.12454497948152168,-0.355253402097841,0.9264196400191828,-0.007191534154117107,-0.008953209966421127,0.07557503134012222,0.008443117141723633,0.008733421564102173,-0.021804332733154297
2025-09-20T02:20:33Z,-0.23024284235446035,0.09832417834134961,-0.7195031788340394,-0.20211943984031677,-0.38490745425224304,-0.9005520343780518,0.005302717335793163,-0.12456973243283329,-0.3545725004303565,0.9266781610323827,-0.005187856033444405,-0.0017549805343151093,0.0674133151769638,0.006818860769271851,0.00043204426765441895,-0.01960235834121704
2025-09-20T02:20:33Z,-0.23042702664745968,0.09795331546586523,-0.7183594132902081,-0.20264333486557007,-0.38457489013671875,-0.9005763530731201,0.0051687446571901646,-0.12458834482822975,-0.3540262251900557,0.9268852619223964,-0.002726336009800434,-0.008471708744764328,0.05355549603700638,0.002750396728515625,-0.002438753843307495,-0.016807079315185547
2025-09-20T02:20:33Z,-0.23074621107885449,0.09764124067289122,-0.717352719446045,-0.2032446712255478,-0.38429513573646545,-0.9005603194236755,0.00502976313564673,-0.12468014756666351,-0.3535463109128269,0.9270569070583632,-0.0013143097748979926,-0.010070877149701118,0.050914466381073,0.0006293207406997681,0.0019911229610443115,-0.017235398292541504
2025-09-20T02:20:33Z,-0.23096879571884577,0.09736867071379357,-0.7163485388089993,-0.20375481247901917,-0.38405144214630127,-0.9005489945411682,0.0049261657613388615,-0.12473411214255747,-0.3530689828840257,0.9272321195369512,-0.0006338870734907687,-0.005932750646024942,0.048230044543743134,0.0019830167293548584,0.0021721720695495605,-0.02002537250518799
2025-09-20T02:20:33Z,-0.2311671274180573,0.09714355733656141,-0.7153603817670798,-0.20423437654972076,-0.38385114073753357,-0.9005257487297058,0.004848000093366097,-0.12478512297586042,-0.3526010642773898,0.9274037100610416,0.0026831254363059998,-0.0038734334520995617,0.04882320761680603,0.002462059259414673,0.0017482340335845947,-0.01922684907913208
2025-09-20T02:20:33Z,-0.23136728487622843,0.09701275258061264,-0.7142498261228594,-0.20474210381507874,-0.3837384581565857,-0.9004584550857544,0.004821129185410479,-0.12485290585591474,-0.3520805764120619,0.9275924310267403,0.007325662299990654,-0.008548390120267868,0.05490703135728836,0.002825900912284851,0.003771841526031494,-0.016329467296600342
2025-09-20T02:20:33Z,-0.2316393858035765,0.09690606293057832,-0.7129549949456387,-0.20536492764949799,-0.38364896178245544,-0.9003547430038452,0.004804437032984905,-0.12495780070833003,-0.351475760150493,0.9278077139772849,0.010327989235520363,-0.0034731486812233925,0.06948991864919662,0.0034329891204833984,0.005940735340118408,-0.017797768115997314
2025-09-20T02:20:33Z,-0.23173903780917604,0.09675763546558407,-0.7114338938359822,-0.20590052008628845,-0.3835218548774719,-0.9002866148948669,0.0048128268159252415,-0.12497510458092118,-0.35076347769001276,0.9280748132958503,0.007790249772369862,0.008678079582750797,0.07806283980607986,0.005226999521255493,0.005189746618270874,-0.02046036720275879
2025-09-20T02:20:33Z,-0.23159428383876868,0.09644961106845508,-0.7098083955496681,-0.20625987648963928,-0.3832473158836365,-0.9003212451934814,0.004796153716619999,-0.1248516649875587,-0.3499946114752734,0.9283817458935207,0.0006634844467043877,0.01937582902610302,0.08496082574129105,0.005877286195755005,0.005634963512420654,-0.02080613374710083
2025-09-20T02:20:33Z,-0.23146126575371864,0.09587916537356952,-0.707941015035924,-0.206721693277359,-0.3827308416366577,-0.9004350304603577,0.004669954700458588,-0.1246887554226124,-0.3491011649823501,0.9287406393954353,-0.004299660213291645,0.011942598968744278,0.09628104418516159,0.003617584705352783,0.006971597671508789,-0.018466413021087646
2025-09-20T02:20:33Z,-0.23132715878301408,0.09530899404724741,-0.7060736491236265,-0.20718245208263397,-0.3822134733200073,-0.9005488753318787,0.00454376646117231,-0.1245257206663839,-0.3482073834565439,0.9290986014404782,-0.009262804873287678,0.004509370308369398,0.10760127007961273,0.0013568252325057983,0.00830736756324768,-0.016126573085784912
2025-09-20T02:20:33Z,-0.2312859451803292,0.09461439431474183,-0.703961680162923,-0.20780734717845917,-0.38158100843429565,-0.9006730914115906,0.0043582991869136846,-0.12438467863948022,-0.347194037560551,0.9294975770897218,-0.011490597389638424,0.012711511924862862,0.11091591417789459,0.004736736416816711,0.004143953323364258,-0.02011185884475708
2025-09-20T02:20:33Z,-0.23105645226751684,0.09389949805304837,-0.7018191661988057,-0.2082730233669281,-0.3809283673763275,-0.9008417725563049,0.0041975433687235,-0.12415314444546656,-0.3461646951115516,0.9299130795209164,-0.009922764264047146,0.02525579370558262,0.11658993363380432,0.0038420259952545166,0.0051590800285339355,-0.022477924823760986
2025-09-20T02:20:33Z,-0.2305566847412799,0.09311827955608008,-0.6993077162091251,-0.20860585570335388,-0.3802138864994049,-0.9010666012763977,0.004074789111830796,-0.12378449170014473,-0.3449596664097679,0.9304103969125528,-0.009562884457409382,0.04115632176399231,0.14496904611587524,0.002339199185371399,0.011738806962966919,-0.02247089147567749
2025-09-20T02:20:33Z,-0.22985602770171443,0.09218895266315282,-0.6961482940659731,-0.20895475149154663,-0.3793615996837616,-0.901344895362854,0.003956365163918466,-0.12329680169980198,-0.34344520763750563,0.9310356716795458,-0.009147949516773224,0.06086508184671402,0.18237009644508362,0.0030418336391448975,0.016833394765853882,-0.023688316345214844
2025-09-20T02:20:33Z,-0.22874977696543006,0.09104920658260499,-0.6921164593894193,-0.20920421183109283,-0.3783120810985565,-0.901728093624115,0.0038608060416721896,-0.12258416145451322,-0.3415129112979815,0.931840645018576,-0.00918134767562151,0.08327504992485046,0.2335224598646164,0.003720104694366455,0.022259831428527832,-0.025704622268676758
2025-09-20T02:20:33Z,-0.22716329873435048,0.0896194988478364,-0.6869954318085116,-0.20935483276844025,-0.37698817253112793,-0.9022474884986877,0.0037743782859683914,-0.12159844950251048,-0.3390569511370305,0.9328665414833602,-0.013709640130400658,0.12244908511638641,0.29697665572166443,0.00719355046749115,0.026064246892929077,-0.032257795333862305
2025-09-20T02:20:33Z,-0.22478671068480033,0.08783521535140744,-0.6806135480900077,-0.20917998254299164,-0.3753240406513214,-0.9029815196990967,0.003725393429353483,-0.12018448424339892,-0.3359922300007595,0.9341578927761077,-0.01807325705885887,0.17612729966640472,0.35881665349006653,0.009220138192176819,0.024427145719528198,-0.03657233715057373
2025-09-20T02:20:33Z,-0.2215336591441734,0.08579775416494992,-0.6730421907856221,-0.2085704803466797,-0.37340644001960754,-0.9039170145988464,0.003764673468768382,-0.11831847192907269,-0.3323544867873757,0.9356959831249062,-0.011379473842680454,0.2095388025045395,0.4136836528778076,0.004008755087852478,0.022236734628677368,-0.03311830759048462
2025-09-20T02:20:33Z,-0.2177679281227683,0.08369267897166455,-0.6643490896513998,-0.20781823992729187,-0.37139973044395447,-0.9049164652824402,0.0039072193620803535,-0.11619997730768704,-0.3281820982888318,0.9374319719480068,-0.0028009414672851562,0.23608186841011047,0.47152432799339294,0.0016284435987472534,0.02407708764076233,-0.02958083152770996
2025-09-20T02:20:33Z,-0.21348757998226514,0.08151120749847632,-0.6544029980004442,-0.2069583386182785,-0.3692856431007385,-0.9059780836105347,0.004149749749695892,-0.11382539292440771,-0.3234102784064949,0.9393786126643697,0.004671399015933275,0.2704050838947296,0.5344338417053223,0.0033072829246520996,0.026740282773971558,-0.031897783279418945
2025-09-20T02:20:33Z,-0.2083752190309478,0.0793186960292418,-0.6435038041358931,-0.20561042428016663,-0.3671180009841919,-0.9071651697158813,0.004548594774120527,-0.11105486786571285,-0.31817882452035984,0.9414925168891721,0.014185473322868347,0.32980069518089294,0.5709682703018188,0.008672535419464111,0.01606959104537964,-0.038393497467041016
2025-09-20T02:20:34Z,-0.2021656936858324,0.07734477808152805,-0.6318661076855308,-0.2034524530172348,-0.36510512232780457,-0.908463180065155,0.005231730388960989,-0.10779602329293021,-0.3125947581808989,0.9437357461661251,0.032814979553222656,0.37847620248794556,0.6020979285240173,0.006010875105857849,0.014844805002212524,-0.03533297777175903
2025-09-20T02:20:34Z,-0.19514439537789366,0.07567867442241911,-0.6192920974026509,-0.20079171657562256,-0.36331892013549805,-0.9097703695297241,0.0061958309507578494,-0.10419088302245404,-0.3065651338416389,0.9461097797175783,0.05509910732507706,0.4166210889816284,0.6639705300331116,-0.0006818771362304688,0.026448875665664673,-0.03133660554885864
2025-09-20T02:20:34Z,-0.18735832057089613,0.07430253526707792,-0.6036093655596244,-0.19829441606998444,-0.361679345369339,-0.9109705686569214,0.007522780221727235,-0.1002446487799439,-0.2990536437233803,0.9489264399438054,0.07979279011487961,0.4463999569416046,0.7538115382194519,-0.001919582486152649,0.026630818843841553,-0.032060205936431885
2025-09-20T02:20:34Z,-0.1795523275099767,0.07304832298029519,-0.5879178952592565,-0.19576117396354675,-0.36008092761039734,-0.9121509194374084,0.008849096037497351,-0.09629022484348804,-0.2915177284334641,0.9516655711291911,0.10448647290468216,0.4761788249015808,0.8436524868011475,-0.003193199634552002,0.026853889226913452,-0.03280371427536011
2025-09-20T02:20:34Z,-0.17117779233000036,0.07230791219489373,-0.5705250951572514,-0.19315163791179657,-0.3588310778141022,-0.9131991863250732,0.010517968986118913,-0.09211083023676689,-0.2831611306789881,0.9545809409461249,0.1342790126800537,0.4956061840057373,0.8799359798431396,-0.0019156932830810547,0.01650753617286682,-0.02845972776412964
2025-09-20T02:20:34Z,-0.16250895830179105,0.07223758280437437,-0.5524259564176143,-0.19042281806468964,-0.358090341091156,-0.9140626192092896,0.012507098870163574,-0.08785308452569222,-0.27445693247648045,0.9574961155715859,0.16134801506996155,0.5105054974555969,0.9097816944122314,-0.004057183861732483,0.018312841653823853,-0.024830877780914307
2025-09-20T02:20:34Z,-0.15359719950524026,0.072627938100385,-0.533195363149696,-0.18775753676891327,-0.35763341188430786,-0.9147925972938538,0.014720720138631226,-0.08350056991021398,-0.265188228764241,0.9604614566865273,0.17995662987232208,0.5235778093338013,0.9809877276420593,-0.007191598415374756,0.03287747502326965,-0.020809173583984375
2025-09-20T02:20:34Z,-0.14443219403781288,0.07317571699050454,-0.512294204186638,-0.1853155642747879,-0.35713112354278564,-0.9154865145683289,0.01702579603886455,-0.07899600256535777,-0.2550789969776035,0.9635375258282575,0.19035768508911133,0.5357730388641357,1.0685288906097412,-0.0084056556224823,0.03842073678970337,-0.01958519220352173
2025-09-20T02:20:34Z,-0.13531763996746266,0.07384344585720166,-0.48988976143716584,-0.1833236664533615,-0.3565284311771393,-0.9161221981048584,0.019345793640316928,-0.07447558803497746,-0.24420422443355627,0.9666661606712876,0.18683558702468872,0.5403088927268982,1.1292649507522583,-0.008261710405349731,0.031498998403549194,-0.019908010959625244
2025-09-20T02:20:34Z,-0.126413468162545,0.07452307283357013,-0.4665070280561768,-0.1817774921655655,-0.35573020577430725,-0.9167404174804688,0.02158170579453765,-0.07000507077816075,-0.2328118098238896,0.9697587920224677,0.18348298966884613,0.528997004032135,1.169467806816101,-0.012250378727912903,0.02502116560935974,-0.018769800662994385
2025-09-20T02:20:34Z,-0.11779436031675682,0.07524312995100411,-0.4422488846501976,-0.18070776760578156,-0.35475170612335205,-0.9173308610916138,0.023732116785362342,-0.06562443567762073,-0.22095169892809263,0.9727849149208138,0.1805291324853897,0.5181666016578674,1.2239707708358765,-0.015009894967079163,0.027425289154052734,-0.01599133014678955
2025-09-20T02:20:34Z,-0.10934173279429861,0.07593313811853897,-0.416624592929325,-0.18013809621334076,-0.3534715473651886,-0.9179369211196899,0.025788723252401446,-0.06126200082711159,-0.2083804725387952,0.9757865784636767,0.18011607229709625,0.5175853967666626,1.305923581123352,-0.016279995441436768,0.032440900802612305,-0.012258648872375488
2025-09-20T02:20:34Z,-0.10121320273037339,0.0767904521714327,-0.3891831038340119,-0.18031904101371765,-0.3520064353942871,-0.918464183807373,0.027838911182701383,-0.05700672180704406,-0.19488103481971203,0.9787729640224744,0.18784232437610626,0.5079547762870789,1.3931599855422974,-0.015315532684326172,0.02827906608581543,-0.008676409721374512
2025-09-20T02:20:34Z,-0.09295204034794977,0.07809355860383682,-0.3605798870025666,-0.18062444031238556,-0.35063767433166504,-0.9189276695251465,0.030038179928033266,-0.05266375838548878,-0.18076890093996897,0.9816551228109189,0.19774839282035828,0.512921929359436,1.4106721878051758,-0.0159081369638443,0.022985130548477173,-0.006782174110412598
2025-09-20T02:20:34Z,-0.08473070513778082,0.07963162759178463,-0.3319852393198889,-0.1808861643075943,-0.3492627739906311,-0.9193996787071228,0.0322304928979629,-0.04830861445768373,-0.16661498530490618,0.9843103599937147,0.2076544612646103,0.517889142036438,1.4281843900680542,-0.0165444016456604,0.01768508553504944,-0.004879355430603027
2025-09-20T02:20:34Z,-0.07655572358362737,0.0814033921082873,-0.3034004159227162,-0.18110397458076477,-0.34788304567337036,-0.9198797345161438,0.03441537697828419,-0.04394229085847815,-0.15242254939661853,0.9867380866796343,0.2175605297088623,0.5228562951087952,1.4456967115402222,-0.017224609851837158,0.01238018274307251,-0.0029684901237487793
2025-09-20T02:20:34Z,-0.06857427928213329,0.08360340713348638,-0.27390067263193063,-0.18165038526058197,-0.3465733826160431,-0.9202662706375122,0.036697955029806786,-0.03963164905716327,-0.13774235713184507,0.9889942937227025,0.22225387394428253,0.5167791247367859,1.4867700338363647,-0.018971040844917297,0.009608358144760132,-0.0018026232719421387
2025-09-20T02:20:34Z,-0.0609697163414087,0.08604668570596408,-0.24360953077158312,-0.18265175819396973,-0.3451579511165619,-0.9205999970436096,0.03897154945447093,-0.035449774195187383,-0.12263620978531109,0.9910523462398395,0.2177683413028717,0.49518993496894836,1.5139153003692627,-0.018062099814414978,0.002802550792694092,-0.0013794302940368652
2025-09-20T02:20:34Z,-0.05393792820297194,0.08851753083038905,-0.21291686357754816,-0.18417580425739288,-0.34347277879714966,-0.920926570892334,0.04111533936705137,-0.031486357968019414,-0.10730113350206602,0.9928768582636994,0.2054290473461151,0.4770607352256775,1.5256308317184448,-0.0156305730342865,-0.0025950372219085693,-0.003245055675506592
2025-09-20T02:20:34Z,-0.04720007966157875,0.09094630685387278,-0.18200289145381018,-0.18590742349624634,-0.3414729833602905,-0.921322226524353,0.04311452918141702,-0.027605756346064568,-0.09182494485671897,0.9944581702670117,0.19251123070716858,0.4673583209514618,1.5347508192062378,-0.011670440435409546,-0.006102174520492554,-0.0022059082984924316
2025-09-20T02:20:34Z,-0.04091538565113418,0.09334941018825092,-0.1510249868172285,-0.18794159591197968,-0.3391963839530945,-0.9217503666877747,0.044973512162891804,-0.02389491963330448,-0.07629455282395607,0.99578378822173,0.17971664667129517,0.44949713349342346,1.5357320308685303,-0.011823013424873352,-0.009805679321289062,-0.001488804817199707
2025-09-20T02:20:34Z,-0.03483500024155217,0.09565344798376037,-0.11999731686297664,-0.19003672897815704,-0.33658021688461304,-0.9222796559333801,0.046672079811126616,-0.020231692813599267,-0.06071618584425875,0.996857947922877,0.16831883788108826,0.45557817816734314,1.530857801437378,-0.008829280734062195,-0.017875343561172485,-0.004334747791290283
2025-09-20T02:20:34Z,-0.028709614766436097,0.09817355727678716,-0.08957638954313914,-0.1917911171913147,-0.3340286314487457,-0.9228439927101135,0.048370900637650746,-0.01651931257148455,-0.04541830546439573,0.9976594748293874,0.18051815032958984,0.4433000385761261,1.479223608970642,-0.009512349963188171,-0.04073739051818848,0.000689387321472168
2025-09-20T02:20:34Z,-0.02320598639681317,0.10131261083944736,-0.06054463321151204,-0.19363398849964142,-0.3320673406124115,-0.9231669306755066,0.05025730033006644,-0.013115030952215194,-0.030814063549075735,0.9981746738009744,0.20475159585475922,0.3971155881881714,1.4069628715515137,-0.015839040279388428,-0.04970625042915344,0.010052800178527832
2025-09-20T02:20:34Z,-0.018611572557642172,0.10502898846240308,-0.03271593607843377,-0.19589167833328247,-0.3306565582752228,-0.9231969714164734,0.052329061601778686,-0.010150140654422608,-0.01682237376354511,0.9984365807151524,0.21869955956935883,0.3511733114719391,1.3496208190917969,-0.014834463596343994,-0.044553399085998535,0.010949909687042236
2025-09-20T02:20:34Z,-0.01456438766002975,0.10892498719111704,-0.005943806111006563,-0.19827984273433685,-0.32942721247673035,-0.9231266379356384,0.05441228309558583,-0.007433073184599205,-0.0033638188931230223,0.9984851661023193,0.20803478360176086,0.3457861840724945,1.2995222806930542,-0.00825551152229309,-0.04227548837661743,-0.0005118846893310547
2025-09-20T02:20:34Z,-0.010486032326680163,0.11267939654269271,0.019604285671211495,-0.20023949444293976,-0.3281363546848297,-0.9231634140014648,0.05635773413761299,-0.004682480910175494,0.009491081586393004,0.9983544535952582,0.20049236714839935,0.33657509088516235,1.2212412357330322,-0.0061114877462387085,-0.05051201581954956,-0.002134561538696289
2025-09-20T02:20:34Z,-0.006792931001603751,0.1165396297872015,0.04346452115491224,-0.20206646621227264,-0.3271274268627167,-0.9231233596801758,0.0582964455003867,-0.002124382387432743,0.021495793304933914,0.9980655043302488,0.2053307145833969,0.30560392141342163,1.1431055068969727,-0.008204162120819092,-0.05058279633522034,0.0021671056747436523
2025-09-20T02:20:34Z,-0.0037242118542067434,0.12067818788648836,0.06597943160042687,-0.2040746659040451,-0.3265201449394226,-0.9228966236114502,0.060330878564442574,0.0001312928885888939,0.0328114212917342,0.9976389997077353,0.21336118876934052,0.2659720480442047,1.0867878198623657,-0.007400795817375183,-0.04175940155982971,0.003141045570373535
2025-09-20T02:20:34Z,-0.0012477318755369996,0.12489501053159273,0.08722513429407067,-0.2062661349773407,-0.3261352777481079,-0.9225454330444336,0.06237471827677879,0.0020988051182919266,0.04347485431414344,0.9971032762600466,0.20810356736183167,0.2458006739616394,1.023211121559143,-0.0042100101709365845,-0.037369340658187866,-0.005387842655181885
2025-09-20T02:20:34Z,0.001128936318812924,0.12893131602534552,0.10736618307577876,-0.20823422074317932,-0.3257187008857727,-0.9222504496574402,0.0642979758243115,0.004019141944802382,0.05358215626419144,0.9964831105706579,0.19709867238998413,0.24708694219589233,0.970282256603241,-0.0014379769563674927,-0.03237447142601013,-0.009912610054016113
2025-09-20T02:20:34Z,0.0035725905786649754,0.13288266940081248,0.12645269044541693,-0.2098468393087387,-0.32536354660987854,-0.9220102429389954,0.06614707958965708,0.005973741491429656,0.06316307688340368,0.995790790815112,0.1938953995704651,0.24347300827503204,0.9153640866279602,-0.0011709034442901611,-0.03285166621208191,-0.006110012531280518
2025-09-20T02:20:34Z,0.005844464506649529,0.13690509753156085,0.14437973470551013,-0.21131496131420135,-0.32524967193603516,-0.9217150807380676,0.06801038408463178,0.007841204680237199,0.07215731369639983,0.9950409087871138,0.19798381626605988,0.22631363570690155,0.856328010559082,-0.003516077995300293,-0.03556850552558899,-7.647275924682617e-05
2025-09-20T02:20:34Z,0.007835908327595596,0.1410244446946551,0.16103396575164713,-0.21272918581962585,-0.3254386782646179,-0.9213229417800903,0.0699106796381922,0.009562104241532136,0.08050467383786368,0.9942534911652399,0.20124025642871857,0.1972893625497818,0.7998791933059692,-0.007040277123451233,-0.03415217995643616,0.00369417667388916
2025-09-20T02:20:34Z,0.009259146751121753,0.14510882572310316,0.17672374291389956,-0.21442539989948273,-0.3257541060447693,-0.9208180904388428,0.07179972133022584,0.010996383952305445,0.08834811352966436,0.9934376509529537,0.19211634993553162,0.17288164794445038,0.7507457733154297,-0.005602017045021057,-0.031176835298538208,0.0015230178833007812
2025-09-20T02:20:34Z,0.010383624336900635,0.1489272846288252,0.19134443100665297,-0.2161439061164856,-0.32601669430732727,-0.9203232526779175,0.07355906031546808,0.012260297692842679,0.09564481354403971,0.9926180973671267,0.17104704678058624,0.1579580008983612,0.6941706538200378,-0.0035694539546966553,-0.03262811899185181,-0.0033901333808898926
2025-09-20T02:20:34Z,0.011414145828740044,0.15235959843588892,0.20469083419803946,-0.21766763925552368,-0.32617220282554626,-0.9199089407920837,0.0751252864006927,0.013436111493404172,0.10230094155237504,0.9918215983633599,0.1518653929233551,0.14430144429206848,0.629493236541748,-0.002839311957359314,-0.03614145517349243,-0.0066588521003723145
2025-09-20T02:20:34Z,0.012211131467012831,0.1554248845666938,0.21680882364520318,-0.2191440463066101,-0.3262380063533783,-0.9195350408554077,0.07651852089041326,0.014450635882463815,0.1083348946678872,0.9910597996239834,0.13529154658317566,0.12236110866069794,0.5721452832221985,-0.0037353932857513428,-0.03528398275375366,-0.005044817924499512
2025-09-20T02:20:34Z,0.012679293050234065,0.1582277986775667,0.22785749220985338,-0.22069883346557617,-0.326282262802124,-0.9191473722457886,0.07779902382661238,0.015263107344808196,0.11382236700279304,0.9903326433738204,0.12389365583658218,0.10309039056301117,0.5280144214630127,-0.005703389644622803,-0.03243401646614075,-0.0062607526779174805
2025-09-20T02:20:34Z,0.012958818121541843,0.1608359770281145,0.23827079183815186,-0.22228695452213287,-0.3262733519077301,-0.9187677502632141,0.0789926509263048,0.01596012836570602,0.11898398899619342,0.9896202296613441,0.11847471445798874,0.09486854821443558,0.5020697712898254,-0.002665907144546509,-0.02922844886779785,-0.007329702377319336
2025-09-20T02:20:34Z,0.013186232629486407,0.16335395724397225,0.24804629329335967,-0.22378723323345184,-0.3263113796710968,-0.9183899760246277,0.08014489158496889,0.016613053486837105,0.1238241358582744,0.9889228452334959,0.11764681339263916,0.08398327231407166,0.4589777886867523,0.000218123197555542,-0.03610867261886597,-0.009143412113189697
2025-09-20T02:20:34Z,0.013231662907375768,0.16587527326576199,0.2567222034442603,-0.22524476051330566,-0.3265934884548187,-0.9179332852363586,0.08131527350072187,0.017143156791178865,0.12810965259359974,0.9882721839165474,0.11726172268390656,0.06790497899055481,0.3944415748119354,0.0006168931722640991,-0.042544543743133545,-0.009634137153625488
2025-09-20T02:20:34Z,0.013248903373944226,0.16836750964577826,0.26413880492756425,-0.22649778425693512,-0.32713231444358826,-0.917432963848114,0.08248103208386105,0.017615934382169757,0.13176874170981898,0.9876859175213559,0.11402758955955505,0.056325171142816544,0.33936887979507446,-0.0008586347103118896,-0.03767326474189758,-0.009280085563659668
2025-09-20T02:20:34Z,0.013207894982291028,0.1706507598558544,0.27050302444497554,-0.22761432826519012,-0.32771915197372437,-0.916947066783905,0.08355452575662826,0.018010813698905098,0.13490371811787005,0.9871652028225796,0.10172631591558456,0.044649139046669006,0.2917039394378662,-0.0009868592023849487,-0.03199559450149536,-0.008497476577758789
2025-09-20T02:20:34Z,0.013095852004240627,0.17271176014716702,0.27600916695236777,-0.22864297032356262,-0.3282991945743561,-0.9164835214614868,0.08452933444316978,0.01832615927717515,0.13761076421985088,0.9867026681515201,0.08859453350305557,0.041164569556713104,0.25136351585388184,0.00031076371669769287,-0.028240889310836792,-0.009598791599273682
2025-09-20T02:20:34Z,0.013088332850498183,0.1745038641795094,0.2807220311683672,-0.22943666577339172,-0.3288169801235199,-0.9160994291305542,0.08537039371089,0.018645968048906975,0.13993007817012038,0.9862979847140655,0.07722726464271545,0.042032428085803986,0.21621981263160706,0.0027361512184143066,-0.026702940464019775,-0.009856998920440674
2025-09-20T02:20:34Z,0.013295643006077653,0.17610651997925644,0.28472392171172556,-0.22991104423999786,-0.3293273448944092,-0.9157971143722534,0.08610843073694409,0.01903175175645279,0.14190747341066884,0.9859438460728385,0.0698954164981842,0.044183600693941116,0.1803477555513382,0.004691570997238159,-0.028919637203216553,-0.010588407516479492
2025-09-20T02:20:34Z,0.013511876264277982,0.1774885648864004,0.2880675551881779,-0.2302653193473816,-0.32979080080986023,-0.9155412912368774,0.08674221273838305,0.019380643489313964,0.14356074455469722,0.9856420951997175,0.06126238405704498,0.03740411624312401,0.14411240816116333,0.0031881332397460938,-0.02990397810935974,-0.01016002893447876
