timestamp,attitude_roll,attitude_pitch,attitude_yaw,gravity_x,gravity_y,gravity_z,quaternion_x,quaternion_y,quaternion_z,quaternion_w,rotation_rate_x,rotation_rate_y,rotation_rate_z,user_acceleration_x,user_acceleration_y,user_acceleration_z
2025-09-18T12:34:55Z,-0.03255601993623873,0.003506098201529307,-0.027091857234434392,-0.2386011779308319,-0.32765644788742065,-0.9141721725463867,0.0015321712176809064,-0.01629951581166124,-0.013572231475727404,0.9997738437629169,0.03124278597533703,-0.009538991376757622,0.028891585767269135,0.0055540502071380615,-0.005753129720687866,-0.0006760358810424805
2025-09-18T12:34:55Z,-0.032723476463994115,0.003943871796643022,-0.026547918516801303,-0.23892591893672943,-0.3279462158679962,-0.9139834046363831,0.0017543284622083082,-0.016385706676279067,-0.013304027403296606,0.9997756597518332,0.013119610026478767,-0.0056205494329333305,0.023548610508441925,0.0023122280836105347,-0.0005180537700653076,0.0008230209350585938
2025-09-18T12:34:55Z,-0.032723505553930346,0.003938528666467869,-0.02602540870255206,-0.23909533023834229,-0.32783207297325134,-0.9139800667762756,0.0017559381238686383,-0.016385228179795177,-0.013042787441682973,0.9997790752615985,-0.01286923885345459,0.002827397547662258,0.026435911655426025,0.0015646517276763916,0.006045728921890259,-0.0012734532356262207
2025-09-18T12:34:55Z,-0.0327306415984769,0.0031427616938647057,-0.025330349842462654,-0.2393355816602707,-0.3269534409046173,-0.9142318964004517,0.0013637892091753268,-0.016383156994710667,-0.012688838280269121,0.9997842931973537,-0.0331907719373703,0.008209548890590668,0.03138963505625725,0.003328964114189148,0.006487399339675903,-0.003100752830505371
2025-09-18T12:34:55Z,-0.03273718188144613,0.002346998561172416,-0.024635304755385532,-0.23957513272762299,-0.32607442140579224,-0.9144830107688904,0.0009716444546590738,-0.016381060430409926,-0.012334889267360812,0.9997892048746315,-0.05351230502128601,0.013591701164841652,0.03634336218237877,0.005092650651931763,0.006928741931915283,-0.004928767681121826
2025-09-18T12:34:55Z,-0.03219675152507538,0.0012331697939843003,-0.023974306476229345,-0.2393065094947815,-0.32490891218185425,-0.9149680733680725,0.00042349996844018826,-0.016103911766128808,-0.011995236268827036,0.9997982190892779,-0.05480591207742691,0.030936483293771744,0.03233442083001137,0.0046042948961257935,0.0012960731983184814,-0.006820559501647949
2025-09-18T12:34:55Z,-0.03148685174103943,0.00014410067808886092,-0.023439933921536756,-0.23884093761444092,-0.3237922489643097,-0.9154854416847229,-0.00011246415130562502,-0.01574253955749467,-0.011719381162225638,0.9998073291377323,-0.04463823139667511,0.03841881826519966,0.02692405879497528,0.0006093829870223999,-0.0025409162044525146,-0.006820380687713623
2025-09-18T12:34:55Z,-0.030888703551834866,-0.0006402043035399895,-0.02287355368850685,-0.23848430812358856,-0.3229496479034424,-0.9158759713172913,-0.0004966658311238208,-0.01543906783605685,-0.01143022068020628,0.9998152706477229,-0.030289236456155777,0.024192526936531067,0.029186377301812172,-0.005901336669921875,-0.00350797176361084,-0.005205869674682617
2025-09-18T12:34:55Z,-0.03046729389220399,-0.0012221737948144677,-0.022269822040922864,-0.23829928040504456,-0.3222857117652893,-0.9161579608917236,-0.0007805932731794017,-0.015225306980129114,-0.011124078654198247,0.9998219104280796,-0.01666809804737568,0.014779207296669483,0.030420642346143723,-0.003872290253639221,-0.004490971565246582,-0.0058574676513671875
2025-09-18T12:34:55Z,-0.03010927890795272,-0.0014732826828689942,-0.02176493248605642,-0.2381368726491928,-0.32194769382476807,-0.9163190126419067,-0.0009003363438657935,-0.015045160133647383,-0.010869926706722169,0.9998273078985626,-0.0065033454447984695,0.018821315839886665,0.021536726504564285,-0.00047250092029571533,-0.006312757730484009,-0.005974948406219482
2025-09-18T12:34:55Z,-0.029844701009478402,-0.0015934471799067065,-0.021370360707640982,-0.2380230724811554,-0.32175371050834656,-0.9164167046546936,-0.0009560283584334224,-0.014912428457292166,-0.010671896389497056,0.9998313708758997,-0.0026938477531075478,0.01038132794201374,0.008902658708393574,-0.0014203935861587524,-0.004096239805221558,0.0006576776504516602
2025-09-18T12:34:55Z,-0.02980855206204401,-0.0017976208617854661,-0.021174205020931963,-0.2380552738904953,-0.32152390480041504,-0.9164890050888062,-0.001056444405402092,-0.014893368893552018,-0.010572330078181221,0.9998326020138192,-0.014284931123256683,-0.003570231609046459,0.007781497202813625,-0.0001179426908493042,0.0009209513664245605,0.0025323033332824707
2025-09-18T12:34:55Z,-0.02989122486298307,-0.002324579069615981,-0.021139163224039848,-0.23814740777015686,-0.32103002071380615,-0.916638195514679,-0.001320054547723053,-0.01493192835483126,-0.010550828107389358,0.9998319385342195,-0.038615573197603226,0.00023045274429023266,-0.0012171873822808266,0.0002784132957458496,0.0039539337158203125,-0.004980206489562988
2025-09-18T12:34:56Z,-0.029825654000823754,-0.003386981467963167,-0.021205940616917586,-0.23807591199874878,-0.32006293535232544,-0.9169948697090149,-0.0018513176703277804,-0.014893461103030508,-0.010576325212967452,0.9998314249193092,-0.06743903458118439,0.009446254931390285,-0.006579980719834566,0.0012482404708862305,0.004587352275848389,-0.0049269795417785645
2025-09-18T12:34:56Z,-0.02958705496377059,-0.005007825534530466,-0.021368450220569147,-0.23781991004943848,-0.3185995817184448,-0.9175707101821899,-0.0026615414778273067,-0.014765348782230488,-0.010645781427601333,0.9998307370493288,-0.092502161860466,0.01776864565908909,-0.0058025214821100235,0.00223676860332489,0.007654041051864624,-0.00429844856262207
2025-09-18T12:34:56Z,-0.029012805384198145,-0.007022457082352159,-0.0215034744678493,-0.23726791143417358,-0.3167654573917389,-0.9183483123779297,-0.0036666085791989583,-0.014467219120616723,-0.01069940217881801,0.9998313696502105,-0.111258365213871,0.03328847512602806,-0.0026343301869928837,0.003816932439804077,0.008755892515182495,-0.00023573637008666992
2025-09-18T12:34:56Z,-0.02819104065371047,-0.009396862238110797,-0.02158611953432108,-0.2365076094865799,-0.31458601355552673,-0.9192931056022644,-0.004849797459467019,-0.014043372469495802,-0.010725438147004931,0.9998321242568331,-0.12648949027061462,0.04847785085439682,0.0038015125319361687,0.0017798244953155518,0.00295412540435791,0.0013652443885803223
2025-09-18T12:34:56Z,-0.02742659007592036,-0.012090055675019236,-0.021341208084422733,-0.23590703308582306,-0.3120405077934265,-0.9203144311904907,-0.006190397548741227,-0.01364733743480188,-0.01058631375464433,0.9998316779266535,-0.1396353393793106,0.027205249294638634,0.02919388934969902,-0.004533335566520691,0.009116262197494507,0.005970358848571777
2025-09-18T12:34:56Z,-0.026896955381341167,-0.015035863110111061,-0.02056319446600284,-0.23569543659687042,-0.3091461658477783,-0.9213448762893677,-0.007655044690925139,-0.013369693881071681,-0.01017910016991934,0.9998295305134645,-0.15170925855636597,0.026269206777215004,0.05269363150000572,-0.004173383116722107,0.006716012954711914,-0.00481414794921875
2025-09-18T12:34:56Z,-0.026108613153429744,-0.018164807345230904,-0.01921200059433856,-0.23543018102645874,-0.3059578835964203,-0.9224762320518494,-0.009206474985298474,-0.012965559596569238,-0.009486083946155426,0.999828556565032,-0.15202143788337708,0.051141589879989624,0.08811099827289581,-0.00461423397064209,0.00866842269897461,-0.015521764755249023
2025-09-18T12:34:56Z,-0.025051690862995923,-0.021180235813713713,-0.01715005660858425,-0.23514270782470703,-0.3027210235595703,-0.9236167669296265,-0.01069609924868428,-0.012433554440995682,-0.008441130396587075,0.9998298574341768,-0.14529789984226227,0.0603315606713295,0.12128409743309021,-0.0019550323486328125,0.007939964532852173,-0.01727539300918579
2025-09-18T12:34:56Z,-0.023681295548905607,-0.024009380923042056,-0.014443516683630944,-0.23476803302764893,-0.29951632022857666,-0.9247561693191528,-0.012088748937072864,-0.011752523077267459,-0.007078536098936104,0.9998328086020066,-0.1258704960346222,0.0641188770532608,0.15376025438308716,-0.003914535045623779,0.0019495785236358643,-0.016188383102416992
2025-09-18T12:34:56Z,-0.022280808382177504,-0.02624869057634452,-0.011116372862832435,-0.23455625772476196,-0.296723335981369,-0.9257097840309143,-0.013184864567590293,-0.011066101409229099,-0.005411133083322725,0.9998372240601154,-0.08711287379264832,0.06935407966375351,0.18375833332538605,-0.0029632598161697388,-0.0009504258632659912,-0.004922032356262207
2025-09-18T12:34:56Z,-0.021105871361243034,-0.027533696697387984,-0.007122150652369969,-0.23475632071495056,-0.29467064142227173,-0.9263145923614502,-0.013803134800813611,-0.010502652263340576,-0.003415259546982659,0.9998437634410832,-0.029400192201137543,0.040937334299087524,0.2140410989522934,-0.0059472620487213135,-0.005528390407562256,0.011156797409057617
2025-09-18T12:34:56Z,-0.020205009329270572,-0.0276342837520784,-0.0025195254949921045,-0.23539291322231293,-0.2935836911201477,-0.9264981150627136,-0.013828711481086758,-0.010083955575341995,-0.0011199970673441593,0.9998529058659118,0.03200424835085869,0.028983600437641144,0.2475508153438568,-0.0035452693700790405,-0.005459219217300415,0.009046018123626709
2025-09-18T12:34:56Z,-0.019467693159851154,-0.025916636355003964,0.0033386857662142263,-0.23656509816646576,-0.29390841722488403,-0.9260965585708618,-0.012941075910664677,-0.009754492176137173,0.001795251429815174,0.9998670841730132,0.08579333871603012,0.030170930549502373,0.2922658920288086,-0.007311820983886719,-0.002753913402557373,-0.001150667667388916
2025-09-18T12:34:56Z,-0.018740495023750716,-0.024194692317042816,0.009195376740739305,-0.23773936927318573,-0.2942255735397339,-0.9256950616836548,-0.012053314541505544,-0.009424941494339107,0.004710483394616918,0.9998718491434431,0.13958242535591125,0.0313582606613636,0.3369809687137604,-0.01107625663280487,-5.614757537841797e-05,-0.011347174644470215
2025-09-18T12:34:56Z,-0.01775032116965105,-0.021068373029545454,0.016421801588788976,-0.23908768594264984,-0.295531302690506,-0.924931526184082,-0.010460354442044448,-0.00896074163037491,0.008303516054420082,0.9998706655049768,0.18846988677978516,0.05135764926671982,0.37733352184295654,-0.00823114812374115,-0.0022248029708862305,-0.01286250352859497
2025-09-18T12:34:56Z,-0.016353576869932145,-0.01670358458448265,0.024221793521568613,-0.24022400379180908,-0.29783764481544495,-0.9238967299461365,-0.008251782319063119,-0.008276953225979456,0.012178057826634073,0.9998575328008873,0.27392804622650146,0.11550471186637878,0.396425724029541,-0.0010990053415298462,-0.020793944597244263,0.000576317310333252
2025-09-18T12:34:56Z,-0.015133513082638803,-0.011241836025673158,0.031876572869014505,-0.24146278202533722,-0.3011680245399475,-0.9224931001663208,-0.005499420590358122,-0.007655184670155438,0.01597942958539537,0.9998278990712341,0.3128277063369751,0.025521114468574524,0.3728429973125458,-0.0047623515129089355,-0.029617995023727417,0.029064416885375977
2025-09-18T12:34:56Z,-0.014525483850680357,-0.0047459415476128865,0.03932127164679679,-0.24318592250347137,-0.30547505617141724,-0.9206224083900452,-0.002229667997038181,-0.00730790346986559,0.019676025160998204,0.9997772655451325,0.3498530387878418,0.02451741136610508,0.3642757534980774,-0.007114127278327942,-0.02557283639907837,0.007562100887298584
2025-09-18T12:34:56Z,-0.01403949067642729,0.0023399263486352877,0.04634252417230625,-0.24487747251987457,-0.3103939890861511,-0.918526291847229,0.0013322604664414515,-0.006990692446880907,0.023160392608667604,0.99970638017239,0.3518561124801636,-0.0007200874388217926,0.31955334544181824,-0.005154281854629517,-0.027976661920547485,-0.0007572770118713379
2025-09-18T12:34:56Z,-0.013570042118495313,0.00921436601661662,0.05251548903807303,-0.24631528556346893,-0.3152862787246704,-0.9164733290672302,0.00478360854115293,-0.006661601491530269,0.02622259756845127,0.9996224121173325,0.340083509683609,0.044355396181344986,0.2860718369483948,0.0020240098237991333,-0.01907309889793396,-0.007881641387939453
2025-09-18T12:34:56Z,-0.012687322251068027,0.015585274102564162,0.057881944809587804,-0.24712364375591278,-0.3198801577091217,-0.9146620035171509,0.007972697967416766,-0.006115281699083291,0.028886060897310814,0.9995321551529424,0.3000621497631073,0.048825427889823914,0.23219755291938782,0.007187679409980774,-0.017920613288879395,-0.0006338953971862793
2025-09-18T12:34:56Z,-0.011715356963181541,0.021112052052465073,0.06209636651653726,-0.24749936163425446,-0.3239522874355316,-0.9131259322166443,0.010732392331672608,-0.0055268149927024755,0.03097913309140765,0.9994470458846794,0.2538823187351227,0.06091771274805069,0.18725311756134033,0.005338400602340698,-0.011030912399291992,0.003761470317840576
2025-09-18T12:34:56Z,-0.010631666211085493,0.025684974915371108,0.06565322668478732,-0.24757571518421173,-0.3272936940193176,-0.9119128584861755,0.013009489294702817,-0.004891024138802387,0.03274931975519667,0.999366912360023,0.20365053415298462,0.05993722006678581,0.1599545031785965,0.0019292980432510376,0.0013563334941864014,0.006882190704345703
2025-09-18T12:34:56Z,-0.009775065656513362,0.029218543180783,0.06872273480254074,-0.24771438539028168,-0.3297918140888214,-0.9109747409820557,0.01476784522690366,-0.004382235227549228,0.03427917238447567,0.9992935419260356,0.15250077843666077,0.02984274923801422,0.13918143510818481,0.0005804598331451416,0.006004303693771362,0.015184938907623291
2025-09-18T12:34:56Z,-0.009110296113165113,0.031840224440372336,0.07121998792455485,-0.24785681068897247,-0.3315882086753845,-0.910283625125885,0.016071336165529956,-0.003984902238693263,0.0355251194071623,0.9992315729682142,0.11453256011009216,0.039078015834093094,0.11107316613197327,0.00896194577217102,0.00150221586227417,0.0076087117195129395
2025-09-18T12:34:56Z,-0.008359342011504244,0.03387913286607028,0.07311627922156202,-0.24774055182933807,-0.3329934775829315,-0.9098021388053894,0.017080035591207722,-0.0035571608312440148,0.03647368406056802,0.9991822769584778,0.0833425223827362,0.03711329773068428,0.07752784341573715,0.011074572801589966,0.0006713271141052246,0.008612453937530518
2025-09-18T12:34:56Z,-0.0077034656651079475,0.0352271006311133,0.07446119765297403,-0.2475462108850479,-0.33389925956726074,-0.9095230102539062,0.017743651848979015,-0.003192884466505279,0.03714815953621482,0.9991470501973733,0.04967724531888962,0.03125138580799103,0.05498199909925461,0.00970141589641571,0.005176931619644165,0.00952214002609253
2025-09-18T12:34:56Z,-0.007168884359623159,0.03587894455967955,0.07536413202168932,-0.2473306804895401,-0.33427613973617554,-0.909443199634552,0.01806067656548534,-0.0029055178543123685,0.03760259277419248,0.9991252850929209,0.010417670011520386,0.02149845100939274,0.03517749905586243,0.009105369448661804,0.008374571800231934,0.00676494836807251
2025-09-18T12:34:56Z,-0.006934536187930959,0.03566770821938589,0.07592139053881813,-0.24728597700595856,-0.3339495062828064,-0.9095754027366638,0.017951522345555065,-0.0027874293786682804,0.037883530588844465,0.9991169742002005,-0.02962924912571907,0.011595524847507477,0.018105750903487206,0.007928788661956787,0.007631480693817139,-6.443262100219727e-05
2025-09-18T12:34:56Z,-0.006671205092866421,0.0348333705072037,0.07608235884015332,-0.24709677696228027,-0.33315029740333557,-0.909919798374176,0.017529949703608348,-0.0026703234268226545,0.037967978524242114,0.9991215272710084,-0.05437108129262924,0.006053063087165356,-0.000543082132935524,0.005808159708976746,0.006897419691085815,0.004395186901092529
2025-09-18T12:34:56Z,-0.006731672405809773,0.03359197949251892,0.07580233782162916,-0.24707022309303284,-0.33208590745925903,-0.910315990447998,0.016910564688718908,-0.0027265365956087484,0.037830049246001335,0.9991373099800078,-0.06366215646266937,-0.0066909873858094215,-0.02715209499001503,0.003803357481956482,-0.00067177414894104,0.0008779168128967285
2025-09-18T12:34:56Z,-0.006800730258525127,0.0322946845212641,0.07500771502429043,-0.24689650535583496,-0.33109381794929504,-0.9107244610786438,0.016262674124983837,-0.0027921087365051314,0.03743509782684945,0.9991627664099033,-0.06564846634864807,-0.0030027006287127733,-0.04636063426733017,0.002958044409751892,-0.0050115883350372314,-0.008416354656219482
2025-09-18T12:34:56Z,-0.0066086162935122175,0.031036530410313682,0.07381835473082082,-0.2463655322790146,-0.33023157715797424,-0.9111811518669128,0.015628906517650563,-0.0027290439053766183,0.03684491472268592,0.9991950062128666,-0.06276936084032059,0.00985807366669178,-0.06349202990531921,-0.0003160536289215088,-0.009658634662628174,-0.01584780216217041
2025-09-18T12:34:56Z,-0.006155918761242174,0.029825261408756812,0.07234990681428254,-0.24551206827163696,-0.3294781446456909,-0.9116841554641724,0.01501355984346675,-0.0025362752857096744,0.03611700343139596,0.9992315420158505,-0.054297786206007004,0.02837858907878399,-0.07861977815628052,-0.0012087374925613403,-0.009067058563232422,-0.010602414608001709
2025-09-18T12:34:56Z,-0.005597321698391734,0.028881614288474012,0.07066980700391648,-0.24449653923511505,-0.3290187120437622,-0.9121228456497192,0.014530094741484022,-0.002286480029237172,0.03528334202683158,0.9992690698623625,-0.04075639694929123,0.008909463882446289,-0.08181611448526382,-0.002675682306289673,-0.0038149356842041016,0.008243024349212646
2025-09-18T12:34:56Z,-0.005580252647359405,0.02821097230626901,0.06912524375934015,-0.24401463568210602,-0.3287752866744995,-0.9123396873474121,0.014192945310114625,-0.002300771548150283,0.034512838903414174,0.999300784948406,-0.03016514889895916,-0.011958304792642593,-0.0743102952837944,-0.008799418807029724,-0.0021518468856811523,0.01305001974105835
2025-09-18T12:34:56Z,-0.005935346061954923,0.027780801218942722,0.0677113201692673,-0.24391087889671326,-0.3287195563316345,-0.912387490272522,0.013982377656034278,-0.0024955203768331747,0.033804583515257974,0.9993274637055598,-0.011019166558980942,-0.026291251182556152,-0.05854564160108566,-0.010152578353881836,-0.004440188407897949,0.002836167812347412
2025-09-18T12:34:56Z,-0.006263220034752211,0.02769425496329577,0.0665615261686677,-0.2438613623380661,-0.3289143741130829,-0.9123305082321167,0.013943143683398428,-0.0026688299373473687,0.03322793115462066,0.99934688360514,-7.44648277759552e-05,-0.012675427831709385,-0.0633484423160553,-0.006660863757133484,-0.011899769306182861,-0.015921413898468018
2025-09-18T12:34:56Z,-0.006120993543750635,0.02769280947484251,0.06527711454413342,-0.2433415800333023,-0.3292185664176941,-0.9123595952987671,0.013938386892561919,-0.0026067390047631173,0.032587130926940586,0.9993682393633873,-0.0038942862302064896,0.02111315354704857,-0.06466633826494217,0.00027677416801452637,-0.009128957986831665,-0.021465182304382324
2025-09-18T12:34:56Z,-0.00578586260047986,0.02761195564386821,0.06404248797863558,-0.24266068637371063,-0.32943791151046753,-0.9124617576599121,0.013891015124144332,-0.0024491755808696484,0.03197266984128785,0.9993891822269512,-0.006040152162313461,-0.002197757363319397,-0.05719977617263794,-0.001343458890914917,-0.0007813572883605957,0.00048536062240600586
2025-09-18T12:34:56Z,-0.006162936514423871,0.027392418064139775,0.0628376539133709,-0.24263861775398254,-0.329522967338562,-0.9124369025230408,0.013785747356271612,-0.0026494211577736955,0.03136838003755467,0.9994093158209422,-0.017391880974173546,-0.04231659695506096,-0.05522552877664566,-0.00538298487663269,0.00034928321838378906,0.0031428933143615723
2025-09-18T12:34:56Z,-0.007490721512077176,0.026864187196510566,0.06175000336548486,-0.24351999163627625,-0.32929766178131104,-0.9122834205627441,0.013540803075887361,-0.003328594642318341,0.030816813031614543,0.9994277767017834,-0.027437210083007812,-0.07721537351608276,-0.05229000002145767,-0.004623040556907654,0.004892289638519287,-0.005331516265869141
2025-09-18T12:34:56Z,-0.008911644077739683,0.026323648242798512,0.0608841245710795,-0.24455370008945465,-0.3290082514286041,-0.9121113419532776,0.013290827031103186,-0.004052761466909549,0.030375805036972448,0.9994419450534845,-0.029761433601379395,-0.056747958064079285,-0.03241337090730667,0.003711029887199402,0.007207810878753662,-0.01586306095123291
2025-09-18T12:34:56Z,-0.009155032494559824,0.02564051145381281,0.06064309435615569,-0.2447042614221573,-0.3284405767917633,-0.912275493144989,0.01295264174989129,-0.004186364467967016,0.03025543617258177,0.9994494989338906,-0.029297830536961555,0.021067552268505096,0.02306227758526802,0.007853075861930847,0.015024363994598389,0.00020438432693481445
2025-09-18T12:34:56Z,-0.008851419873360146,0.025263804074472655,0.06151022996372238,-0.24469269812107086,-0.327891081571579,-0.9124762415885925,0.012761549464563761,-0.004034829435013105,0.03069163540403565,0.9994392836283805,-0.012607118114829063,0.015756554901599884,0.05963354557752609,0.0002931356430053711,0.007048606872558594,0.018831074237823486
2025-09-18T12:34:56Z,-0.008548359030803943,0.025163496835045932,0.06324912380006363,-0.2449459433555603,-0.32738757133483887,-0.9125890731811523,0.012710146462341136,-0.0038738794742684984,0.031562751999228505,0.9994134211726353,-0.0006582476198673248,0.024107906967401505,0.10656396299600601,-0.004068717360496521,0.001052170991897583,0.008968472480773926
2025-09-18T12:34:56Z,-0.008067205628056781,0.025216816328393715,0.06583341301526542,-0.2452922910451889,-0.3268226385116577,-0.9126985669136047,0.01273388071309578,-0.0036161486667631213,0.032857053083655295,0.999372322276747,0.007058415096253157,0.037305835634469986,0.1506148874759674,-0.004781261086463928,0.0022794008255004883,-0.0089263916015625
2025-09-18T12:34:56Z,-0.007100079526403042,0.025281804872148775,0.06934409392542719,-0.24547402560710907,-0.3260452151298523,-0.9129276871681213,0.012755942396046008,-0.003109431670963214,0.03461726773911515,0.9993143194331139,-0.00014413800090551376,0.06393004208803177,0.20219063758850098,-0.005494117736816406,0.009477078914642334,-0.020950794219970703
2025-09-18T12:34:56Z,-0.0054989482347829015,0.025130662699382165,0.07383728457428738,-0.24537059664726257,-0.32483044266700745,-0.9133884310722351,0.012657867887133552,-0.002283604678434307,0.036872682206343266,0.9992371169898121,-0.010397040285170078,0.09479352831840515,0.251004159450531,0.00022049248218536377,0.016216665506362915,-0.019700586795806885
2025-09-18T12:34:56Z,-0.00324913483122721,0.024919708758391942,0.07982320555122323,-0.24511726200580597,-0.32319387793540955,-0.9140368103981018,0.01251441073181148,-0.0011259997373444619,0.039877634482277144,0.9991255133835496,-0.0020379340276122093,0.15405935049057007,0.36085256934165955,-0.006302565336227417,0.03540676832199097,-0.012335002422332764
2025-09-18T12:34:57Z,-0.00021067737230777642,0.024916182099288198,0.08798252081913767,-0.2447810173034668,-0.3212055265903473,-0.9148274660110474,0.012450349278997224,0.00044262769548948086,0.04397235184896351,0.9989550011441405,0.007730078883469105,0.16358084976673126,0.44067442417144775,0.0011979788541793823,0.02823665738105774,0.0016077756881713867
2025-09-18T12:34:57Z,0.002898100494595492,0.025305713160518228,0.09773051390693503,-0.24483230710029602,-0.3191642463207245,-0.915527880191803,0.012566629379195851,0.0020652263716080914,0.04886016716383876,0.998724359692162,0.02828367054462433,0.1738569289445877,0.5323864221572876,-0.004105553030967712,0.02771204710006714,-0.011176645755767822
2025-09-18T12:34:57Z,0.006759266432511915,0.026150074779861338,0.10946198651442303,-0.24475111067295074,-0.3170139193534851,-0.9162963628768921,0.012870151420044421,0.0040895062956691226,0.0547428100242757,0.9984090924252457,0.05075567215681076,0.2432316541671753,0.63926100730896,-0.0038670599460601807,0.02961680293083191,-0.02846395969390869
2025-09-18T12:34:57Z,0.01178650140190512,0.027451551467855724,0.12329588264488937,-0.24417413771152496,-0.3147059381008148,-0.9172453880310059,0.013335994192969687,0.006727056841577509,0.06168276396716915,0.9979839686270016,0.07028867304325104,0.29719269275665283,0.728700578212738,-0.0023625940084457397,0.023657530546188354,-0.02079063653945923
2025-09-18T12:34:57Z,0.017594499156299633,0.02926534275204455,0.13880099274899912,-0.24330776929855347,-0.3123775124549866,-0.918271005153656,0.013986392015582398,0.00978964499629977,0.06946311022535727,0.9974383345963563,0.09081582725048065,0.3127225637435913,0.8078354597091675,-0.004391893744468689,0.030325502157211304,-0.00029647350311279297
2025-09-18T12:34:57Z,0.023060132882119444,0.03173664458179276,0.15575705562050277,-0.2431020587682724,-0.31019753217697144,-0.9190641045570374,0.01492160679661167,0.012727837237989816,0.07796726687666786,0.9967628918300031,0.12418428063392639,0.3052073121070862,0.8863199949264526,-0.007362633943557739,0.03154635429382324,0.013484716415405273
2025-09-18T12:34:57Z,0.028924922871065666,0.035107280262366376,0.174209022115168,-0.2428719401359558,-0.3083537817001343,-0.919745147228241,0.016226449675285876,0.01593174158186321,0.08722479971813381,0.9959289823770036,0.16463936865329742,0.3351374864578247,0.9544589519500732,0.001202225685119629,0.018904775381088257,0.01466071605682373
2025-09-18T12:34:57Z,0.03484538578693615,0.03923840148069553,0.19340812973513094,-0.24270839989185333,-0.3069019019603729,-0.9202737808227539,0.01784150943382849,0.019230969971788043,0.09686036999819253,0.9949521294377685,0.18297511339187622,0.32791659235954285,0.9601185917854309,0.005581915378570557,-0.00044211745262145996,0.012904524803161621
2025-09-18T12:34:57Z,0.04051102118956262,0.043550622316544454,0.2121909977433427,-0.24257111549377441,-0.30562785267829895,-0.9207338690757751,0.01950238662395802,0.022440742819870046,0.10628828250952282,0.993890685819493,0.17311552166938782,0.31578564643859863,0.9283237457275391,0.005518853664398193,-0.013014018535614014,0.008678317070007324
2025-09-18T12:34:57Z,0.045771994877424706,0.04764126757069187,0.2303419707514066,-0.2425418496131897,-0.3042345941066742,-0.9212028980255127,0.021025388677193082,0.025462358486206104,0.11539531172596672,0.9927705700487895,0.1467941403388977,0.3029929995536804,0.8900624513626099,0.003905743360519409,-0.02065587043762207,0.003912448883056641
2025-09-18T12:34:57Z,0.050763021838326594,0.051009497960220765,0.24755274440042674,-0.24241752922534943,-0.3023677170276642,-0.9218500256538391,0.02216647021313484,0.028323911298763074,0.12402291928946628,0.9916272467130719,0.10623133927583694,0.2778850793838501,0.8365833163261414,-0.0010568946599960327,-0.02421104907989502,0.0024758577346801758
2025-09-18T12:34:57Z,0.055035685474079145,0.05349282910704024,0.2636037193749924,-0.2425643354654312,-0.299959659576416,-0.9225978255271912,0.022886576537990103,0.030779256565640904,0.13205329558267898,0.9905001886872672,0.058575984090566635,0.23766891658306122,0.7687627673149109,-0.0031043291091918945,-0.0279349684715271,0.006371021270751953
2025-09-18T12:34:57Z,0.05884050697243932,0.0552724590050983,0.2782549272839588,-0.24270914494991302,-0.29726263880729675,-0.9234322905540466,0.023276038820099702,0.0329510721216412,0.1393711149881228,0.9894180240616107,0.027112841606140137,0.22382394969463348,0.6921509504318237,0.0004405975341796875,-0.03490009903907776,0.007400333881378174
2025-09-18T12:34:57Z,0.061344147435932944,0.056078422586636596,0.28930664699458175,-0.24310271441936493,-0.2947063148021698,-0.9241478443145752,0.023310754885814026,0.034374452425250945,0.1448757496074391,0.9885777152342656,0.014947651885449886,0.18400900065898895,0.606065034866333,0.0012081116437911987,-0.03400614857673645,0.007238268852233887
2025-09-18T12:34:57Z,0.0638388145143094,0.05691194127307128,0.30035686551021495,-0.24346578121185303,-0.29214590787887573,-0.9248649477958679,0.023344691067246973,0.03579668749696664,0.1503756142940746,0.9877047783959606,0.0027824603021144867,0.14419405162334442,0.5199791193008423,0.0019451528787612915,-0.03311622142791748,0.007077813148498535
2025-09-18T12:34:57Z,0.06632424652579783,0.05777292059941208,0.3114054530120177,-0.24379822611808777,-0.2895817458629608,-0.92558354139328,0.02337785108653464,0.037217749206732625,0.15587048534746714,0.9867992210718204,-0.009382729418575764,0.10437911748886108,0.43389320373535156,0.0026515424251556396,-0.03223007917404175,0.006918787956237793
2025-09-18T12:34:57Z,0.06749345315898425,0.058248888882090476,0.31953643632859463,-0.24462561309337616,-0.2875332832336426,-0.9260037541389465,0.023367636320122294,0.03792658038760961,0.15990138337988619,0.9861273386796356,-0.007766950875520706,0.06301066279411316,0.37656229734420776,0.0013533681631088257,-0.023988395929336548,0.006980597972869873
2025-09-18T12:34:57Z,0.06826297318165692,0.058790050135190786,0.3267899771467634,-0.24560154974460602,-0.2857986390590668,-0.9262823462486267,0.02343378213716309,0.038433979078035335,0.1634935312148071,0.9855168936499574,0.0020606769248843193,0.04867051914334297,0.35121771693229675,0.0032898038625717163,-0.015208125114440918,0.006179392337799072
2025-09-18T12:34:57Z,0.06870589330092383,0.059502544444135996,0.333617291150032,-0.24676960706710815,-0.28433915972709656,-0.9264211058616638,0.023616494191636313,0.03879060837944665,0.16687225547580065,0.984932091855995,0.016901593655347824,0.04485296830534935,0.329773485660553,0.003344029188156128,-0.014961957931518555,0.00615692138671875
2025-09-18T12:34:57Z,0.06913108629694843,0.06054705091298019,0.33995409740192695,-0.24783501029014587,-0.28332260251045227,-0.9264481067657471,0.023971610921777728,0.039162237896875896,0.17001219993105865,0.984371632599472,0.03232690691947937,0.044015541672706604,0.3110981285572052,0.0014924407005310059,-0.017881274223327637,0.005336463451385498
2025-09-18T12:34:57Z,0.06953310681927713,0.06187543533265347,0.34577081221381917,-0.248798206448555,-0.2827165722846985,-0.9263750910758972,0.02447657253647026,0.03954299724271295,0.17289841075910417,0.983841133346946,0.04802586883306503,0.0431906133890152,0.2789001762866974,0.0024110227823257446,-0.020403116941452026,0.0008115172386169434
2025-09-18T12:34:57Z,0.07013207797040136,0.06347919286872254,0.35103643650445804,-0.24945111572742462,-0.282524973154068,-0.9262579679489136,0.0251086609952501,0.04004080957188526,0.17551864964866182,0.9833409894558344,0.06591887772083282,0.05299452692270279,0.2543485164642334,0.0024304836988449097,-0.016905665397644043,-0.004258930683135986
2025-09-18T12:34:57Z,0.0710081970347032,0.06535197423971309,0.35585462646272625,-0.2497452199459076,-0.28271108865737915,-0.9261218905448914,0.025854937408275103,0.0406962434141137,0.17792540788088956,0.9828620649907371,0.07262773811817169,0.0625397264957428,0.23512229323387146,0.0012359470129013062,-0.012153029441833496,-0.00616377592086792
2025-09-18T12:34:57Z,0.0716925557685075,0.06726045069743623,0.36022440033846326,-0.2501122057437897,-0.2830651104450226,-0.9259147047996521,0.02664222629124314,0.04125843560496897,0.18010918449316135,0.9824198096506174,0.07566189765930176,0.043308015912771225,0.21556901931762695,-0.002128690481185913,-0.008087128400802612,-0.002811908721923828
2025-09-18T12:34:57Z,0.07240969384761246,0.06897994647239916,0.36431368479121434,-0.25037795305252075,-0.2833316922187805,-0.925761342048645,0.027337180961057275,0.04181946727889653,0.18215231722868505,0.982000120008416,0.06792429834604263,0.05120733380317688,0.20530949532985687,-0.0014576613903045654,-0.006107419729232788,-0.0034037232398986816
2025-09-18T12:34:57Z,0.0731767047996693,0.07066560197345867,0.36832222543487914,-0.2505742907524109,-0.28358909487724304,-0.9256293773651123,0.028010409393470284,0.042403718831247446,0.18415549246540336,0.9815823733551914,0.06342895328998566,0.05425126850605011,0.20017293095588684,-0.0034238100051879883,-0.003983527421951294,0.0002900362014770508
2025-09-18T12:34:57Z,0.07389722910982288,0.07223773948633647,0.37228539739694866,-0.2507966160774231,-0.28375422954559326,-0.9255185723304749,0.02863094289518784,0.042956898273154916,0.18613359166751697,0.9811672339886588,0.06472406536340714,0.05384577810764313,0.20305278897285461,-0.004976242780685425,-0.0034416615962982178,0.004224121570587158
2025-09-18T12:34:57Z,0.07472566740728964,0.07385668244968813,0.3762644725465048,-0.2509186565876007,-0.2839527726173401,-0.9254245758056641,0.02926182086000669,0.04357013473416401,0.18812125550040348,0.9807424228461313,0.061566270887851715,0.054904092103242874,0.19981640577316284,-0.004536360502243042,-0.005018353462219238,0.004448831081390381
2025-09-18T12:34:57Z,0.07541254408090116,0.07540506360606268,0.38004852448217824,-0.2511237859725952,-0.2841459810733795,-0.9253095984458923,0.029873476829646743,0.04410707547008914,0.190009703226179,0.9803358629244557,0.0551828071475029,0.048458803445100784,0.18810448050498962,-0.0041710734367370605,-0.00731232762336731,0.00393301248550415
2025-09-18T12:34:57Z,0.07609178333543708,0.07670335061231791,0.38365184644019273,-0.25128790736198425,-0.2841675579547882,-0.925258457660675,0.03036532432001364,0.044616308290475,0.19180525605069915,0.979947957020005,0.04258888214826584,0.04537384584546089,0.17099200189113617,-0.0029646456241607666,-0.008463293313980103,0.000721275806427002
2025-09-18T12:34:57Z,0.07662893904721788,0.07762495159630155,0.3868456626994399,-0.25148501992225647,-0.283977210521698,-0.9252633452415466,0.030693771212320146,0.045015623556469854,0.1933919150004016,0.9796076017351957,0.024976516142487526,0.03824981302022934,0.15048205852508545,-0.0021966099739074707,-0.0065781474113464355,1.9669532775878906e-06
2025-09-18T12:34:57Z,0.07708298595343374,0.07824660817308651,0.38971775902963884,-0.25168177485466003,-0.2836170494556427,-0.9253203272819519,0.03088944858626732,0.04534162044505972,0.1948148228864934,0.9793044439422267,0.0076264552772045135,0.02950363978743553,0.13694989681243896,-0.006112962961196899,-0.0059587061405181885,4.8995018005371094e-05
2025-09-18T12:34:57Z,0.07741642414368632,0.07842054552337475,0.39238470631684946,-0.2519347667694092,-0.28291675448417664,-0.9254658222198486,0.030881459042240777,0.04556279572042849,0.1961283054307136,0.9790321777290545,-0.00472161453217268,0.026264062151312828,0.11710257828235626,-0.00394245982170105,-0.010290175676345825,0.0026799440383911133
2025-09-18T12:34:57Z,0.07783883212023401,0.07848091509565823,0.39443181668261706,-0.25197166204452515,-0.28231215476989746,-0.9256404042243958,0.030822735007117276,0.045806973040405326,0.1971377234847793,0.978819873330641,-0.009965386241674423,0.029393671080470085,0.0924040675163269,-0.0034036636352539062,-0.014833241701126099,0.0030153393745422363
2025-09-18T12:34:57Z,0.07816196582480164,0.07826243730144554,0.39591555521332084,-0.25197601318359375,-0.2816365361213684,-0.9258450269699097,0.03064980060547093,0.04596666027499129,0.19786545605561506,0.9786709727203077,-0.025371182709932327,0.023079000413417816,0.048547495156526566,0.0008296668529510498,-0.021336883306503296,0.001913309097290039
2025-09-18T12:34:57Z,0.07848021746828017,0.07751411829452305,0.3962060145118958,-0.25172510743141174,-0.2808667719364166,-0.9261470437049866,0.03024522231579906,0.04605387221765509,0.1980009440575167,0.9786520578964563,-0.049523934721946716,-0.0035096127539873123,-0.020794469863176346,0.0014989674091339111,-0.025220125913619995,0.0028815269470214844
2025-09-18T12:34:57Z,0.07843368414669648,0.0761283873910377,0.3952892512530407,-0.2515474259853363,-0.2799100875854492,-0.9264848828315735,0.029592367213611286,0.04588240697119705,0.19753022397537973,0.978775201576878,-0.08322268724441528,-0.012735072523355484,-0.07330264151096344,-0.0002759099006652832,-0.01816380023956299,0.0029567480087280273
2025-09-18T12:34:57Z,0.07822191047921018,0.07421885224748533,0.3935082920875185,-0.2513313293457031,-0.2787574827671051,-0.9268909692764282,0.02871879245297506,0.04556738514329797,0.19662585139670816,0.9789980024359156,-0.09662565588951111,-0.017050720751285553,-0.11442831158638,-0.0005018711090087891,-0.014416784048080444,-0.0007317662239074707
2025-09-18T12:34:57Z,0.07816065976673398,0.07202561699329356,0.39101005760951457,-0.25081872940063477,-0.27757740020751953,-0.9273838400840759,0.027707181918672462,0.04529029595128251,0.1953677105893883,0.979291867662585,-0.10654033720493317,-0.006528798490762711,-0.1459556519985199,-0.0007115304470062256,-0.014322549104690552,0.0005972981452941895
2025-09-18T12:34:57Z,0.0782732679482656,0.06951566579198333,0.3878418382481927,-0.24999523162841797,-0.27632322907447815,-0.9279805421829224,0.026537904969293247,0.045061699257067475,0.19377811579331938,0.979650593865252,-0.12264275550842285,-0.0039484682492911816,-0.19327901303768158,0.000470966100692749,-0.02558383345603943,0.0020450949668884277
2025-09-18T12:34:57Z,0.07831258535923438,0.0664614560774609,0.3830604089034736,-0.2488832324743271,-0.2750888764858246,-0.92864590883255,0.025144242744890636,0.04472907577395388,0.1913872372766843,0.9801724953715919,-0.15204112231731415,-0.04476076737046242,-0.3088521361351013,0.0028836429119110107,-0.045306622982025146,0.010370731353759766
2025-09-18T12:34:57Z,0.07740822980560906,0.062494417523584596,0.37591151425159325,-0.24811460077762604,-0.2737744152545929,-0.9292398691177368,0.023442341209324993,0.04382767408637937,0.18780758384744167,0.9809473956208417,-0.18766701221466064,-0.07648387551307678,-0.4192052483558655,-0.0012308508157730103,-0.04255485534667969,0.009628891944885254
2025-09-18T12:34:57Z,0.07629609095114398,0.05777795574791327,0.36690023611053013,-0.2471040040254593,-0.272355318069458,-0.9299259185791016,0.021425127109134138,0.04274863030313052,0.18329725469300118,0.981893855980288,-0.2180357277393341,-0.09687110781669617,-0.5139236450195312,-0.0013375431299209595,-0.04179134964942932,0.011669397354125977
2025-09-18T12:34:57Z,0.07454081270223285,0.052163684050380306,0.35565465763493015,-0.2461560219526291,-0.2708002030849457,-0.9306312203407288,0.01906075167851762,0.04127163210441556,0.1776650430298514,0.9830404028250352,-0.2625429928302765,-0.13718518614768982,-0.6503201723098755,0.001506522297859192,-0.052921682596206665,0.009868919849395752
2025-09-18T12:34:57Z,0.07197474772111408,0.045416359164290744,0.34155878161069286,-0.24526146054267883,-0.26906618475914,-0.9313700795173645,0.016248249884326636,0.03930349189270356,0.17060170610261874,0.9844217832878931,-0.31328997015953064,-0.1928970068693161,-0.7925096750259399,-0.0028363135643303394,-0.05002395808696747,0.01045474223792553
2025-09-18T12:34:57Z,0.06798815941830157,0.037012293392843364,0.32379666488990116,-0.2447560429573059,-0.26689279079437256,-0.9321280717849731,0.012774968724524594,0.03651848511423677,0.1616920064664945,0.9860826146884855,-0.339830219745636,-0.21210706233978271,-0.8787201642990112,0.00018286705017089844,-0.049570560455322266,0.007648646831512451
2025-09-18T12:34:57Z,0.06385397365314653,0.028680337753129434,0.3060060373666195,-0.24429404735565186,-0.26470518112182617,-0.9328727722167969,0.00930037522904716,0.033729755975875984,0.15276581398496547,0.9876428808776095,-0.36637043952941895,-0.23131713271141052,-0.9649306535720825,0.0032454878091812134,-0.04913139343261719,0.004829287528991699
2025-09-18T12:34:57Z,0.05932142063421682,0.01994879203064094,0.2861865686838868,-0.24361717700958252,-0.2626658082008362,-0.9336259365081787,0.005638999213629311,0.030773554641277304,0.14282841720310782,0.9892529076620921,-0.381746381521225,-0.25107279419898987,-1.064587950706482,0.0004975348711013794,-0.04711911082267761,0.004426836967468262
2025-09-18T12:34:57Z,0.05446782959420299,0.011030666136057722,0.264664902297335,-0.24270519614219666,-0.2608403265476227,-0.9343749284744263,0.0018721342636209414,0.027719511321721027,0.13204449043192837,0.9908544009642475,-0.3857981562614441,-0.257744163274765,-1.129368543624878,-0.004712387919425964,-0.032790422439575195,0.006827950477600098
2025-09-18T12:34:57Z,0.04936090783874509,0.002231971133539238,0.24220107269910832,-0.24166527390480042,-0.2592603862285614,-0.9350839257240295,-0.0018737365167603248,0.024631973050084712,0.12079522345311511,0.9923700754386275,-0.3760879933834076,-0.2576984167098999,-1.150231122970581,-0.0102110356092453,-0.017003923654556274,0.00820070505142212
2025-09-18T12:34:58Z,0.0441036794281961,-0.006200815281645802,0.21953108990679365,-0.24058274924755096,-0.2579271197319031,-0.9357315897941589,-0.005496461332119063,0.02157769314843211,0.10945014291443313,0.993742890412079,-0.360039085149765,-0.2606945037841797,-1.1524436473846436,-0.013055041432380676,-0.00909772515296936,0.009568333625793457
2025-09-18T12:34:58Z,0.0383891584315829,-0.014215252719218889,0.19671221229409797,-0.23975980281829834,-0.256867915391922,-0.9362339973449707,-0.00895661014399333,0.018402337276464075,0.09804127036037028,0.9949719107892538,-0.34532812237739563,-0.28490108251571655,-1.1513820886611938,-0.015542298555374146,-0.002608269453048706,0.0092545747756958
2025-09-18T12:34:58Z,0.03216830574498454,-0.021803387798424615,0.17423951184161632,-0.239379420876503,-0.25595274567604065,-0.9365819096565247,-0.01225806198138516,0.015073100551710152,0.08681850523003194,0.996034629465239,-0.33036112785339355,-0.2929719090461731,-1.1140316724777222,-0.01623249053955078,0.011048629879951477,0.004796266555786133
2025-09-18T12:34:58Z,0.02572004102968269,-0.028850231095736735,0.1526406205210809,-0.23933912813663483,-0.25515517592430115,-0.936809778213501,-0.015361836236782837,0.011721166503796064,0.07604705143212938,0.9969169347306033,-0.30961695313453674,-0.2948779761791229,-1.0646675825119019,-0.014092609286308289,0.015917330980300903,0.002702653408050537
2025-09-18T12:34:58Z,0.01912893484539452,-0.03526698909481508,0.13198443796325654,-0.23959654569625854,-0.25455614924430847,-0.9369069337844849,-0.018224010773859652,0.008379303995617034,0.06576278867608124,0.9976336214265917,-0.2845395505428314,-0.29346421360969543,-1.0112195014953613,-0.011279448866844177,0.015557348728179932,0.0013641119003295898
2025-09-18T12:34:58Z,0.01257651064108254,-0.04102093358166526,0.11234597872307035,-0.24001926183700562,-0.25418487191200256,-0.9368995428085327,-0.020829244823755925,0.005125550338980212,0.05600177684469635,0.9982001344024178,-0.25445112586021423,-0.2862258553504944,-0.9519882202148438,-0.010875716805458069,0.016809359192848206,0.0001214146614074707
2025-09-18T12:34:58Z,0.0063544783354083055,-0.04596593123195184,0.0940361274485927,-0.24044166505336761,-0.25412020087242126,-0.9368088245391846,-0.02310472165669754,0.0020927684615883045,0.04691515592550253,0.9986294597339238,-0.2211700975894928,-0.26093703508377075,-0.882779598236084,-0.009292170405387878,0.018807336688041687,-0.002819538116455078
2025-09-18T12:34:58Z,0.000506180886035154,-0.05013273257607709,0.07694746221522737,-0.24080751836299896,-0.2543826699256897,-0.9366436004638672,-0.02505492398839984,-0.0007112339590405619,0.03844581572898515,0.9989463070943854,-0.19082796573638916,-0.23396269977092743,-0.8272983431816101,-0.0032054632902145386,0.013638287782669067,-0.007385671138763428
2025-09-18T12:34:58Z,-0.00494243735499146,-0.05368540928120628,0.06063107879139196,-0.24096982181072235,-0.2549448609352112,-0.9364489912986755,-0.026752189661748065,-0.0032827171613209996,0.030366180358133227,0.9991753668891133,-0.16917172074317932,-0.22056420147418976,-0.79520183801651,0.0007993131875991821,0.011111706495285034,-0.00915437936782837
2025-09-18T12:34:58Z,-0.009999731060679747,-0.05688063346491068,0.045189024559930555,-0.24097687005996704,-0.25555482506752014,-0.9362808465957642,-0.02831595666138713,-0.005638993147938539,0.02272531383167083,0.9993247152178807,-0.16226603090763092,-0.1958107203245163,-0.7335160970687866,0.00048141181468963623,0.02457614243030548,-0.013941943645477295
2025-09-18T12:34:58Z,-0.014391898333827502,-0.05996515849730494,0.031199321178300543,-0.24076293408870697,-0.2558623254299164,-0.9362519383430481,-0.02986146673108874,-0.007659395089483995,0.01580730677695596,0.999399650357802,-0.16363218426704407,-0.16069935262203217,-0.6546902656555176,0.001769229769706726,0.033713653683662415,-0.016923189163208008
2025-09-18T12:34:58Z,-0.017991545026780582,-0.06311468568236721,0.018671140124440898,-0.2402268946170807,-0.25571879744529724,-0.9364288449287415,-0.03146551668763939,-0.009285321033015057,0.009614228059361398,0.9994154832328745,-0.16980192065238953,-0.11944565176963806,-0.5922176837921143,0.004654109477996826,0.025007188320159912,-0.017395198345184326
2025-09-18T12:34:58Z,-0.020870153812812837,-0.06633894972203061,0.0071965254407649224,-0.23931913077831268,-0.2552211582660675,-0.9367969632148743,-0.033123843915546354,-0.010548403413978913,0.003942133662400406,0.9993878749994108,-0.16947446763515472,-0.09720565378665924,-0.5466955900192261,0.0022587478160858154,0.01718325912952423,-0.011331021785736084
2025-09-18T12:34:58Z,-0.023420993815333833,-0.06944458599371119,-0.0033994894816424637,-0.23835906386375427,-0.2546004056930542,-0.9372105598449707,-0.034732776177565844,-0.011644150121328365,-0.0012920791571811704,0.9993280230868679,-0.1594913899898529,-0.09096889942884445,-0.4983711242675781,-0.002017080783843994,0.015431702136993408,-0.0014870166778564453
2025-09-18T12:34:58Z,-0.025921739992589763,-0.07228797178235584,-0.012884000215238405,-0.23768660426139832,-0.2539515793323517,-0.9375572800636292,-0.03621576790259508,-0.012719005718423783,-0.005968874707786398,0.9992452364281363,-0.14104348421096802,-0.09316705912351608,-0.4402903914451599,-0.005347773432731628,0.016069993376731873,0.00418621301651001
2025-09-18T12:34:58Z,-0.028177140013738874,-0.07447973009233651,-0.020308234880123493,-0.23742824792861938,-0.25345367193222046,-0.9377574920654297,-0.03736859329462676,-0.013699603497287898,-0.009621404851089045,0.9991613558362237,-0.12303432822227478,-0.09010130167007446,-0.38100993633270264,-0.00373019278049469,0.014153525233268738,0.004459977149963379
2025-09-18T12:34:58Z,-0.030449131836150715,-0.07665472342568042,-0.027738639432457676,-0.23717381060123444,-0.25295335054397583,-0.9379569292068481,-0.038520839463912264,-0.014679969151088337,-0.013273788303214415,0.9990617326987399,-0.10502516478300095,-0.08703554421663284,-0.32172948122024536,-0.0021086931228637695,0.012234613299369812,0.004732966423034668
2025-09-18T12:34:58Z,-0.032830329210341964,-0.07856738227386652,-0.03398004855835383,-0.23739708960056305,-0.25243696570396423,-0.9380395412445068,-0.03954128462616736,-0.015732259961089658,-0.016329252932639968,0.998960573824038,-0.1005031168460846,-0.10324110090732574,-0.2766340970993042,-0.0009516477584838867,0.013010755181312561,0.0030663013458251953
2025-09-18T12:34:58Z,-0.03531721081555663,-0.08051554226869422,-0.03915489200445984,-0.23806153237819672,-0.2516555190086365,-0.9380811452865601,-0.04057830336106161,-0.016852242049893135,-0.018846754170923366,0.998856410339371,-0.10538919270038605,-0.10228127241134644,-0.21975964307785034,-0.00013467669486999512,0.01884979009628296,-0.004013657569885254
2025-09-18T12:34:58Z,-0.03762680089340566,-0.08255510721616414,-0.043031989749054596,-0.23898105323314667,-0.2505146265029907,-0.9381526708602905,-0.041653370404642114,-0.017904266246182438,-0.02071608004971489,0.998756849490326,-0.10922739654779434,-0.09842492640018463,-0.1580354869365692,-4.965066909790039e-05,0.0218365341424942,-0.005436241626739502
2025-09-18T12:34:58Z,-0.039718240150163044,-0.08469846531750856,-0.045657346084889076,-0.2401052713394165,-0.2490166872739792,-0.9382644295692444,-0.042770079568783634,-0.018868627410839986,-0.02196123404475878,0.9986653105380496,-0.10931140929460526,-0.08387360721826553,-0.10097365081310272,0.0028841495513916016,0.017548471689224243,-0.006470203399658203
2025-09-18T12:34:58Z,-0.041448040993773874,-0.08682815796992988,-0.04732789822481157,-0.24120286107063293,-0.2473360002040863,-0.9384274482727051,-0.04386884375133162,-0.019670505541303396,-0.022735253819782576,0.9985848499977908,-0.10568250715732574,-0.0727652832865715,-0.06181573122739792,0.005002349615097046,0.010775595903396606,-0.004515647888183594
2025-09-18T12:34:58Z,-0.04298725123318206,-0.0889176190402509,-0.04834676640111944,-0.24233534932136536,-0.2455604076385498,-0.9386019706726074,-0.04493988663091595,-0.02039044771694309,-0.02318665356727269,0.998512409661814,-0.09986723214387894,-0.07086627930402756,-0.029644273221492767,0.004673302173614502,0.009370043873786926,-0.001019299030303955
