timestamp,attitude_roll,attitude_pitch,attitude_yaw,gravity_x,gravity_y,gravity_z,quaternion_x,quaternion_y,quaternion_z,quaternion_w,rotation_rate_x,rotation_rate_y,rotation_rate_z,user_acceleration_x,user_acceleration_y,user_acceleration_z
2025-09-18T12:34:52Z,0.026024929662451048,0.0016424968048923383,0.07350474986446941,-0.21616770327091217,-0.30333763360977173,-0.9280397891998291,0.000342506602733843,0.013033479035858152,0.03675165550148126,0.9992394276277968,0.028833186253905296,0.01341581717133522,0.031128987669944763,0.0034589022397994995,-0.00886678695678711,-0.0021122097969055176
2025-09-18T12:34:52Z,0.026254964688913782,0.002271104997754284,0.07398001857204767,-0.21610258519649506,-0.3038029968738556,-0.9279026985168457,0.0006492170083865505,0.013160107377845471,0.03699325847835482,0.9992287023979265,0.028058603405952454,0.004729682579636574,0.016559116542339325,0.002275407314300537,-0.009274691343307495,0.00014668703079223633
2025-09-18T12:34:52Z,0.026231494880184423,0.002823292193287639,0.07413677980996994,-0.21617604792118073,-0.304274320602417,-0.9277311563491821,0.000924500674985994,0.013158658944567133,0.03707517656375621,0.9992254657679209,0.021377336233854294,-0.0040944479405879974,-0.0004137549549341202,0.0025733858346939087,-0.009548932313919067,0.0018264055252075195
2025-09-18T12:34:52Z,0.02599589117574158,0.0032640916304824716,0.07396922612276037,-0.2163475751876831,-0.3047208786010742,-0.9275445938110352,0.0011501910077760871,0.013049015031166459,0.03699420592708178,0.9992296585651911,0.01399137731641531,-0.01656779646873474,-0.018735941499471664,0.0032346397638320923,-0.008091449737548828,0.0016547441482543945
2025-09-18T12:34:52Z,0.02565695704119491,0.0034964689743861303,0.07338998253569198,-0.2164890170097351,-0.30507421493530273,-0.9273954033851624,0.0012762913023124259,0.012883602656324808,0.03670609213872209,0.9992422706235004,0.004231221973896027,-0.019938411191105843,-0.033786848187446594,0.0024790912866592407,-0.008621424436569214,0.0004227757453918457
2025-09-18T12:34:52Z,0.025147901907491093,0.003494323745684663,0.07259955408034584,-0.2167224884033203,-0.3052619993686676,-0.9272790551185608,0.0012895533215396137,0.012628719766981726,0.036310834381500325,0.9992599327614154,-0.001990180928260088,-0.02728627622127533,-0.04501601681113243,0.002120882272720337,-0.0063810646533966064,0.0011112093925476074
2025-09-18T12:34:52Z,0.02454200867035956,0.003379186779348648,0.07160661973142977,-0.21698349714279175,-0.3053940236568451,-0.9271745681762695,0.0012491455868279687,0.01232329038163984,0.03581363393819186,0.9992817303651825,-0.00700198020786047,-0.03564618527889252,-0.048743922263383865,0.0006196498870849609,-0.0042838454246521,0.003160417079925537
2025-09-18T12:34:52Z,0.023764386787531153,0.003171796734465593,0.07063250244565368,-0.2174084633588791,-0.30543622374534607,-0.9270610809326172,0.0011652600153081625,0.011930481845610604,0.03532520411385622,0.999304006370251,-0.011037789285182953,-0.03988226130604744,-0.04656770080327988,-0.0006316155195236206,-0.002377837896347046,0.0022802352905273438
2025-09-18T12:34:52Z,0.022949331477905024,0.002945194261982802,0.06966256795357918,-0.21786893904209137,-0.3054593503475189,-0.9269453883171082,0.0010720191970253444,0.01151872096755569,0.03483879969485098,0.9993259379209808,-0.010785424150526524,-0.04115743562579155,-0.04371102526783943,-4.427134990692139e-05,3.841519355773926e-05,0.00102156400680542
2025-09-18T12:34:52Z,0.022097810642946726,0.002650574860965732,0.06888536091906915,-0.2184208780527115,-0.30537348985671997,-0.9268437623977661,0.0009439495912651524,0.011087753332187958,0.03444837513200212,0.9993444578425298,-0.01298440806567669,-0.0395384281873703,-0.03582454472780228,8.037686347961426e-05,0.0005513131618499756,0.0007544159889221191
2025-09-18T12:34:52Z,0.021399300486560024,0.002385906333474146,0.06820777535237771,-0.21886123716831207,-0.3052912950515747,-0.9267669320106506,0.0008273692454616275,0.010733891792259906,0.03410805993735572,0.9993600980907935,-0.01273147203028202,-0.03484687954187393,-0.029846757650375366,0.00027191638946533203,0.0006061792373657227,-0.0003777742385864258
2025-09-18T12:34:52Z,0.020767959210593892,0.0020758187571567575,0.06770299662340604,-0.21929138898849487,-0.305125892162323,-0.9267197251319885,0.000685819009798977,0.010412964499644201,0.03385396139193883,0.9993723201648579,-0.013733201660215855,-0.028914861381053925,-0.022366628050804138,-0.0013110637664794922,1.2040138244628906e-05,-0.0019403696060180664
2025-09-18T12:34:52Z,0.020273923691942638,0.0017601539749308517,0.06736457078546025,-0.21964465081691742,-0.30491554737091064,-0.9267053008079529,0.0005381670049030496,0.010160670335793537,0.03368308879011841,0.9993808000934864,-0.01677553355693817,-0.022130824625492096,-0.012660877779126167,-0.0015547573566436768,0.0004310905933380127,-0.001730501651763916
2025-09-18T12:34:52Z,0.019794212445413354,0.0013752990317011332,0.06716350791302826,-0.22002586722373962,-0.3046085834503174,-0.9267158508300781,0.00035493388619782285,0.009914449052028991,0.03358059113503272,0.9993867954667555,-0.017415156587958336,-0.020704543218016624,-0.01062033325433731,-0.0005377233028411865,0.0013133883476257324,-0.0015619993209838867
2025-09-18T12:34:52Z,0.019455238985892877,0.001047950715388346,0.06701908893375384,-0.22029423713684082,-0.30434107780456543,-0.9267399907112122,0.00019775448577546005,0.00973955794197438,0.03350677813912853,0.9993910068803245,-0.013360744342207909,-0.0206565223634243,-0.006217386107891798,-0.00011241436004638672,0.000274658203125,-0.00032657384872436523
2025-09-18T12:34:52Z,0.018970862049886867,0.0007633883236352066,0.06690513576172868,-0.22070688009262085,-0.3041057586669922,-0.9267190098762512,6.421534617251541e-05,0.009492747368276632,0.03344844190091476,0.9993953119015971,-0.008594390004873276,-0.019646959379315376,-0.006958820391446352,0.0004299581050872803,-0.0018203556537628174,-0.0015655159950256348
2025-09-18T12:34:52Z,0.01857021139929766,0.0006593343099209827,0.0667820380635804,-0.22104023396968842,-0.3040391206741333,-0.9266614317893982,1.9492106447524022e-05,0.009290801693089257,0.03338643354976109,0.9993993095114979,-0.0024691415019333363,-0.021154845133423805,-0.0018085669726133347,-0.0007103383541107178,0.00046259164810180664,0.0011712908744812012
2025-09-18T12:34:52Z,0.018072461226730407,0.0006151345586575862,0.06684651889090522,-0.22152075171470642,-0.3039829730987549,-0.9265651106834412,5.422988956874049e-06,0.009041338520436735,0.03341845030676773,0.9994005009518202,0.003969057463109493,-0.020896466448903084,0.008896596729755402,-0.002231195569038391,0.0013678371906280518,0.0004140138626098633
2025-09-18T12:34:52Z,0.01776779072158015,0.0007152028635028103,0.0670464508541485,-0.2218642383813858,-0.30402764678001404,-0.9264682531356812,5.962926176066459e-05,0.008890772267305563,0.03351879884419017,0.9993984883940616,0.004997681360691786,-0.0126565620303154,0.009554714895784855,-0.0008376985788345337,-0.003049105405807495,-0.004242897033691406
2025-09-18T12:34:52Z,0.01775525512844907,0.0008235761846786865,0.0671252246370995,-0.2219003140926361,-0.30410879850387573,-0.9264329671859741,0.00011364342572128298,0.008886328765487533,0.03355864220187748,0.9993971717953181,0.0026874651666730642,0.006079394370317459,-0.00042677484452724457,0.00454498827457428,-0.0062344372272491455,-0.010417759418487549
2025-09-18T12:34:52Z,0.018029385186577613,0.0007963493627502612,0.06702316182764935,-0.2216152399778366,-0.30410802364349365,-0.926501452922821,9.58989569268573e-05,0.009022849593767104,0.0335075348190509,0.9993976517679328,-0.007896965369582176,0.01449129544198513,-0.01204320602118969,0.003992199897766113,-0.00345611572265625,-0.004900634288787842
2025-09-18T12:34:52Z,0.018211605824386884,0.0005495889031331082,0.06675917396769253,-0.22136497497558594,-0.30394330620765686,-0.9266153573989868,-2.925732999883349e-05,0.009109775306786631,0.033374506246088884,0.9994013515568787,-0.01802748814225197,0.0015278095379471779,-0.016036033630371094,0.0024543553590774536,-0.00010025501251220703,0.0003250241279602051
2025-09-18T12:34:52Z,0.018135302651721294,8.131463174548706e-05,0.06634650667226379,-0.2213078737258911,-0.30360960960388184,-0.9267383813858032,-0.00026011098070762506,0.009063887244634977,0.03316617622464333,0.9994086566461563,-0.023526806384325027,-0.010404965840280056,-0.02470463141798973,0.0020943135023117065,-0.001134246587753296,0.003147125244140625
2025-09-18T12:34:52Z,0.017881668850164307,-0.0003645043845892224,0.0657599976997284,-0.22136247158050537,-0.30333787202835083,-0.9268143177032471,-0.0004760641681339289,0.008929891797692888,0.032871132494338526,0.9994195668325412,-0.020435821264982224,-0.02236163802444935,-0.03092486783862114,0.001158490777015686,-0.0033766627311706543,0.004807829856872559
2025-09-18T12:34:52Z,0.017315672631686426,-0.0007344177968070377,0.06504426733845645,-0.22166769206523895,-0.3031667172908783,-0.9267973899841309,-0.0006485191113960865,0.008641209624577465,0.032512002943565155,0.9994337664902988,-0.014704765751957893,-0.031140264123678207,-0.03555314987897873,0.0007097870111465454,-0.004329800605773926,0.0056896209716796875
2025-09-18T12:34:52Z,0.016597809199990148,-0.0010010765003309124,0.06429908124179498,-0.22210516035556793,-0.3030976951122284,-0.9267151951789856,-0.0007670192624459701,0.008278431119166794,0.03213873996727827,0.9994488393864011,-0.007889041677117348,-0.03597491979598999,-0.03659316897392273,0.0006621479988098145,-0.0027970075607299805,0.004118502140045166
2025-09-18T12:34:52Z,0.01573562756902303,-0.0012026513726616516,0.06352616880309991,-0.2226680964231491,-0.30309510231018066,-0.9265809655189514,-0.0008508650922128109,0.007844666313087525,0.031752025553355774,0.9994646558989859,-0.008837956935167313,-0.039659351110458374,-0.03814389929175377,9.040534496307373e-05,-0.002295941114425659,0.0025878548622131348
2025-09-18T12:34:52Z,0.014905588834566875,-0.0014504134190777363,0.06271961486446037,-0.223190575838089,-0.30305764079093933,-0.9264675378799438,-0.0009585076071533645,0.007426321103347438,0.031348386331357676,0.9994804747382785,-0.01179592777043581,-0.040641121566295624,-0.04221918061375618,0.0007330626249313354,-0.001861661672592163,-0.0015284419059753418
2025-09-18T12:34:52Z,0.014144066948112552,-0.0017669222617044144,0.06187805055630205,-0.22363846004009247,-0.30296480655670166,-0.9263898730278015,-0.0011017811145952183,0.00704125880725974,0.030927058599293573,0.9994962523072408,-0.020362066105008125,-0.038186054676771164,-0.03993385285139084,0.00046747922897338867,-0.0016386806964874268,-0.004662692546844482
2025-09-18T12:34:52Z,0.01344426801519692,-0.0022256406613276585,0.06110408295199474,-0.22404901683330536,-0.3027244210243225,-0.9263692498207092,-0.0013176169045346629,0.006684949185602465,0.03053910204847705,0.99951036813362,-0.022889891639351845,-0.028126923367381096,-0.03560280054807663,-5.844235420227051e-05,-0.0008537769317626953,-0.005963802337646484
2025-09-18T12:34:52Z,0.01286908769164257,-0.0027569265370116862,0.060365609202984914,-0.22435462474822998,-0.3024084270000458,-0.926398515701294,-0.0015719879875236696,0.006389963791191301,0.030168702248315696,0.9995231832364143,-0.02580588310956955,-0.024131838232278824,-0.036316052079200745,-0.0006662905216217041,-0.0005325376987457275,-0.0029570460319519043
2025-09-18T12:34:52Z,0.012470680175889474,-0.003234878548262426,0.05956994209300753,-0.22447918355464935,-0.30215492844581604,-0.9264510273933411,-0.0018023801755050546,0.006184358386806892,0.02976986751587557,0.9995360621081549,-0.021387692540884018,-0.020322907716035843,-0.040327463299036026,-0.0006798356771469116,-0.003420203924179077,-0.0038697123527526855
2025-09-18T12:34:52Z,0.012171808094008923,-0.0036883322350246845,0.058724118634297925,-0.22449623048305511,-0.301935613155365,-0.9265183806419373,-0.0020220035556720523,0.006029093030774752,0.029346027490265433,0.9995491157233495,-0.01953861676156521,-0.012880055233836174,-0.04355251044034958,0.0002338886260986328,-0.003132373094558716,-0.0028306245803833008
2025-09-18T12:34:52Z,0.01193239797733371,-0.004023311143423399,0.05778392989479501,-0.2244296818971634,-0.3018476963043213,-0.9265631437301636,-0.0021831285725056313,0.005905549688402419,0.028875374238286605,0.999563254959647,-0.0169377364218235,-0.014491666108369827,-0.04369349405169487,-0.0006880909204483032,-0.00037223100662231445,-0.0006829500198364258
2025-09-18T12:34:52Z,0.011638685534683581,-0.0044201615310207965,0.05687840149042127,-0.2244235873222351,-0.3016940951347351,-0.9266146421432495,-0.002374621821411295,0.005754099513712958,0.028421961893213908,0.9995765829015022,-0.018596524372696877,-0.01642417162656784,-0.04397417604923248,-0.00013528764247894287,-7.316470146179199e-05,-0.0001342296600341797
2025-09-18T12:34:52Z,0.01121834161435575,-0.0048574891136726524,0.05597027157662039,-0.224533811211586,-0.301503449678421,-0.9266499876976013,-0.0025847046890921993,0.005538969950824212,0.02796734326976731,0.9995901236251185,-0.021279195323586464,-0.019528059288859367,-0.04538003355264664,-0.0011131763458251953,-0.0008222460746765137,-0.00015282630920410156
2025-09-18T12:34:52Z,0.010784734092086742,-0.005306157017664716,0.054970538364837444,-0.22462813556194305,-0.3013235330581665,-0.9266856908798218,-0.002800225577775731,0.005317375084867554,0.027467011897678757,0.9996046340270843,-0.020209740847349167,-0.024173498153686523,-0.05308835208415985,-0.0015650391578674316,-0.0014687776565551758,0.00039136409759521484
2025-09-18T12:34:52Z,0.0102837099634608,-0.005747714176019893,0.053779980680290135,-0.22472628951072693,-0.30119451880455017,-0.9267038106918335,-0.003011022816942939,0.005062684721561985,0.02687151199964765,0.9996215375000749,-0.01935603655874729,-0.027629829943180084,-0.06338054686784744,-0.0005918890237808228,-0.006051898002624512,0.0003199577331542969
2025-09-18T12:34:52Z,0.009680213364978554,-0.006077122078884086,0.05233560923849362,-0.22484160959720612,-0.30122804641723633,-0.9266649484634399,-0.0031641198738121155,0.004758905968813238,0.026149688654045905,0.999641724074606,-0.01396987121552229,-0.03354936093091965,-0.07672294229269028,-0.0009702593088150024,-0.006754368543624878,-0.0009179115295410156
2025-09-18T12:34:52Z,0.009030043777533192,-0.006334094984011256,0.050596816235607536,-0.2249094843864441,-0.30139654874801636,-0.9265936613082886,-0.003280206031677664,0.004433427155524605,0.025281028873792286,0.9996652292319614,-0.011667133308947086,-0.032753653824329376,-0.09275676310062408,-0.0016123205423355103,-0.006699681282043457,-0.0023833513259887695
2025-09-18T12:34:53Z,0.008418480506842926,-0.006612309992479658,0.04865022935694354,-0.22487686574459076,-0.30159279704093933,-0.9265377521514893,-0.003407520756478295,0.004127545605696612,0.024308454316431614,0.9996902150354523,-0.01122654601931572,-0.026713179424405098,-0.1040608286857605,-0.00021654367446899414,-0.005432069301605225,-0.004189908504486084
2025-09-18T12:34:53Z,0.007900342863919257,-0.006889456481389926,0.04644083200638663,-0.22467584908008575,-0.3018498122692108,-0.9265028238296509,-0.0035354813796464987,0.0038690926401679605,0.023204406023573772,0.999717041991855,-0.01507935393601656,-0.02539919875562191,-0.11250534653663635,-0.0006702691316604614,-0.0037728846073150635,-0.002461671829223633
2025-09-18T12:34:53Z,0.0073826974799937484,-0.007214484266431734,0.04407116558884156,-0.22442366182804108,-0.3020980954170227,-0.9264830350875854,-0.0036876676818955404,0.0036109396134484722,0.02202019354503096,0.9997442146077073,-0.01776251569390297,-0.02448916994035244,-0.12124552577733994,-0.0010189265012741089,-0.0039549171924591064,-0.00157850980758667
2025-09-18T12:34:53Z,0.006858269441906191,-0.007600685854197941,0.041470021217340655,-0.22410476207733154,-0.30234137177467346,-0.9264808297157288,-0.003870591939405088,0.0033495722824751716,0.020720224347068397,0.9997722016961279,-0.018402772024273872,-0.02426076866686344,-0.13199582695960999,-0.0010384172201156616,-0.005185991525650024,0.000920414924621582
2025-09-18T12:34:53Z,0.006287839064154071,-0.008018269508054277,0.03868381275569601,-0.22376957535743713,-0.30259597301483154,-0.9264787435531616,-0.004069159335573187,0.00306576215391268,0.01932784747682643,0.999800214816696,-0.019292248412966728,-0.03101770207285881,-0.14288915693759918,-0.0021683424711227417,-0.00386771559715271,0.0011486411094665527
2025-09-18T12:34:53Z,0.005637267488830825,-0.008432715087190007,0.03569053548247317,-0.22344258427619934,-0.3028983771800995,-0.9264588356018066,-0.004265953191446341,0.002742918737667717,0.01783220923002071,0.9998280998045794,-0.020449429750442505,-0.03315012902021408,-0.1507430523633957,-0.0015514940023422241,-0.0033052563667297363,0.0018709897994995117
2025-09-18T12:34:53Z,0.005002627280787564,-0.008879273325163712,0.0325994066323971,-0.22306834161281586,-0.3031904995441437,-0.9264534711837769,-0.0044797869522423366,0.0024285930688700426,0.016287666867536268,0.9998543429616862,-0.022026829421520233,-0.03663201630115509,-0.16022831201553345,-0.0011721253395080566,-0.002694845199584961,0.0014568567276000977
2025-09-18T12:34:53Z,0.004206149915892537,-0.009379114775164479,0.029339926698602543,-0.22278933227062225,-0.3034684658050537,-0.9264296293258667,-0.004719875755719769,0.002034031213436892,0.014659381938980585,0.9998793437721618,-0.02127801440656185,-0.0352788083255291,-0.1642373651266098,-0.0004062652587890625,-0.0016270577907562256,-0.0008313655853271484
2025-09-18T12:34:53Z,0.0036182723531280195,-0.009838472974538302,0.025978401625996374,-0.22228285670280457,-0.3038034737110138,-0.9264414310455322,-0.004942292041927862,0.001745065942136295,0.012979758751897627,0.9999019929681648,-0.02259637601673603,-0.02626030705869198,-0.16906329989433289,-9.138882160186768e-05,-0.001480013132095337,-0.0023709535598754883
2025-09-18T12:34:53Z,0.003063183796523807,-0.01029092039695202,0.022599880382154904,-0.22173823416233063,-0.3041451573371887,-0.9264598488807678,-0.005162409305125044,0.0014733314279347259,0.011291656796404145,0.9999218246182237,-0.023435521870851517,-0.020816218107938766,-0.16911521553993225,-0.00020197033882141113,-0.0013970136642456055,-0.001554250717163086
2025-09-18T12:34:53Z,0.0026361933802935326,-0.010720044571647267,0.019138714951222217,-0.22104647755622864,-0.30452319979667664,-0.9265009760856628,-0.005372359703421139,0.0012667261694579385,0.00956200132317306,0.9999390134996328,-0.021832462400197983,-0.015644429251551628,-0.17133523523807526,0.00039505958557128906,0.00018784403800964355,-0.0019524693489074707
2025-09-18T12:34:53Z,0.002187868249427596,-0.011186222441992156,0.015736282502115007,-0.22039037942886353,-0.3048500716686249,-0.9265497922897339,-0.005601512631646948,0.001049876263020605,0.00786181407879955,0.9999528477835864,-0.02258317358791828,-0.016694698482751846,-0.16953687369823456,0.00033673644065856934,0.0005403757095336914,-0.0009184479713439941
2025-09-18T12:34:53Z,0.001785407534142925,-0.01157127230485182,0.01238538017351432,-0.21970564126968384,-0.30523696541786194,-0.9265850186347961,-0.005791018650364253,0.0008568433696991326,0.0061873795655195026,0.9999637382318247,-0.015251858159899712,-0.01702166348695755,-0.16349327564239502,-0.0001224726438522339,-0.0010205507278442383,-0.001282036304473877
2025-09-18T12:34:53Z,0.0014324971490867026,-0.011848815607061032,0.009175701514261185,-0.21901729702949524,-0.3056887090206146,-0.9265990853309631,-0.005927595262769409,0.0006890483696886225,0.004583509703448052,0.9999716876720185,-0.007275998592376709,-0.018113959580659866,-0.15332600474357605,-0.000937730073928833,0.00011482834815979004,0.0007454752922058105
2025-09-18T12:34:53Z,0.0010983620359383956,-0.011906653941836605,0.006171700749914961,-0.21837468445301056,-0.3062955439090729,-0.9265503287315369,-0.0059549573219705824,0.0005307977162749285,0.003082520961668381,0.9999773599413634,0.0018078610301017761,-0.012556507252156734,-0.14485713839530945,-0.0009185522794723511,0.0002703070640563965,1.1086463928222656e-05
2025-09-18T12:34:53Z,0.0010141318993531793,-0.011802914977314477,0.003123987485024524,-0.21748465299606323,-0.307058721780777,-0.9265070557594299,-0.0059022077217582465,0.0004978385329640162,0.001558973411878492,0.999981170445992,0.01340446900576353,0.019619669765233994,-0.16043396294116974,0.003595411777496338,-0.010094702243804932,-0.012033641338348389
2025-09-18T12:34:53Z,0.0017368027610467933,-0.011464586381922898,-0.0003393037155069318,-0.21571271121501923,-0.30812665820121765,-0.9265667796134949,-0.005732112205516025,0.0008693594761242252,-0.00017462690822338963,0.9999831825327516,0.020934801548719406,0.047549374401569366,-0.181846484541893,0.005717739462852478,-0.01006317138671875,-0.013014614582061768
2025-09-18T12:34:53Z,0.002692731279888245,-0.011165460987983633,-0.004179306087324007,-0.21360161900520325,-0.3092358112335205,-0.9266863465309143,-0.005579870698472626,0.0013580071638956781,-0.0020971333443077795,0.9999813394619121,0.013454563915729523,0.04972037672996521,-0.19956769049167633,0.0026052743196487427,-0.004141896963119507,-0.006030619144439697
2025-09-18T12:34:53Z,0.00355163909821183,-0.011033172306178576,-0.008284839598370005,-0.21149194240570068,-0.31024274230003357,-0.9268336296081543,-0.005509146049329177,0.0017986281431793965,-0.0041521346802686895,0.9999745940649075,0.001378895714879036,0.04179559648036957,-0.20633327960968018,-0.000177726149559021,5.677342414855957e-05,-0.0006711483001708984
2025-09-18T12:34:53Z,0.0041431831856650345,-0.01106173592505684,-0.01244345594604371,-0.20960913598537445,-0.31110668182373047,-0.9269717931747437,-0.005517832128227783,0.002105929364288272,-0.006233036584394867,0.9999631568240096,-0.002469621831551194,0.026601605117321014,-0.20484811067581177,-0.00022111833095550537,0.0036422014236450195,0.0031000375747680664
2025-09-18T12:34:53Z,0.004604486019221263,-0.011129300453739365,-0.01647661809996495,-0.20788365602493286,-0.31190231442451477,-0.927092969417572,-0.005545451758722888,0.0023479695917236827,-0.008250876987442958,0.999947846706158,-0.001764529151841998,0.019783010706305504,-0.2007245272397995,0.0005193948745727539,0.004045844078063965,0.003914773464202881
2025-09-18T12:34:53Z,0.004910195352742767,-0.011153729745385881,-0.02041491776979705,-0.20632962882518768,-0.3127126395702362,-0.9271671175956726,-0.005551469152580361,0.002511853288838653,-0.010220783053623525,0.9999292045097214,0.001990947173908353,0.010163121856749058,-0.1875423789024353,-0.0009824186563491821,0.002278834581375122,0.00504910945892334
2025-09-18T12:34:53Z,0.004979715030716552,-0.011044012088445156,-0.0240533824254399,-0.20508860051631927,-0.3135793209075928,-0.927149772644043,-0.005491618023185189,0.0025560462577923168,-0.012039928681091648,0.9999091622374878,0.011358014307916164,0.0019211675971746445,-0.1685911864042282,-0.0019106268882751465,0.002773582935333252,0.005686461925506592
2025-09-18T12:34:53Z,0.004946392929509173,-0.010787060351353486,-0.027314658414071574,-0.204062819480896,-0.31449946761131287,-0.9270644187927246,-0.005359208652759822,0.0025465855677134514,-0.013670001658117364,0.9998889939582531,0.016706060618162155,0.00039604806806892157,-0.15657435357570648,1.539289951324463e-05,0.0015735924243927002,0.0010236501693725586
2025-09-18T12:34:53Z,0.004968170072325163,-0.01044036565014926,-0.030344857552286317,-0.20305898785591125,-0.3154512047767639,-0.9269614815711975,-0.005181854408032911,0.0025629618457460646,-0.015184558458169944,0.9998680277838586,0.019073059782385826,0.005611550062894821,-0.14183971285820007,0.0015947967767715454,0.003340780735015869,-0.0031695961952209473
2025-09-18T12:34:53Z,0.0050244451693758916,-0.010122109413377543,-0.032995844587256296,-0.20214474201202393,-0.31629520654678345,-0.9268736839294434,-0.005018884208872461,0.0025953382686308138,-0.01650962265166237,0.9998477787741573,0.015400845557451248,0.00669876579195261,-0.12489579617977142,0.00028218328952789307,0.003593146800994873,-0.00473785400390625
2025-09-18T12:34:53Z,0.005236580431699153,-0.00990873627700096,-0.03531072488662922,-0.20119401812553406,-0.3169705271720886,-0.9268498420715332,-0.004907335147717816,0.002705313138665082,-0.017667138816626012,0.9998281706757788,0.00903918407857418,0.019543375819921494,-0.10382605344057083,-7.934868335723877e-05,0.0054763853549957275,-0.005704343318939209
2025-09-18T12:34:53Z,0.005446648519947118,-0.009772822693468153,-0.037278754867107314,-0.2003573179244995,-0.3175012171268463,-0.9268494844436646,-0.0048347675877832485,0.0028138890598678806,-0.018651311701718756,0.9998103849754537,0.008914855308830738,0.016685733571648598,-0.08585202693939209,-0.0010652393102645874,0.0031185150146484375,-0.0007051825523376465
2025-09-18T12:34:53Z,0.005807954937011365,-0.00959626333745384,-0.03885031628354312,-0.19950932264328003,-0.31798702478408813,-0.926865816116333,-0.004740782082590913,0.0029965901013734616,-0.019437562931946522,0.999795294505104,0.012061106972396374,0.01749955490231514,-0.06842131912708282,-0.00018827617168426514,0.0005515217781066895,-0.0001246929168701172
2025-09-18T12:34:53Z,0.006184418277426739,-0.009327655762892786,-0.0401808544945083,-0.1987258344888687,-0.31850799918174744,-0.9268552660942078,-0.004600728718293089,0.003185237820179797,-0.020103180111739654,0.9997822354395601,0.015782520174980164,0.02497529797255993,-0.05945490673184395,0.0006718486547470093,0.0010644495487213135,-0.002266824245452881
2025-09-18T12:34:53Z,0.006727833656040624,-0.00907378802274847,-0.04130466787798856,-0.1978549212217331,-0.31897252798080444,-0.9268818497657776,-0.00446641826883345,0.00345684839204026,-0.02066579457191055,0.9997705023647978,0.015403402037918568,0.026630252599716187,-0.05112992227077484,0.0008234977722167969,0.0011548995971679688,-0.0026445984840393066
2025-09-18T12:34:53Z,0.007292359381772414,-0.008817490643471666,-0.042300335196447165,-0.1970061957836151,-0.3194127678871155,-0.9269110560417175,-0.004330604997496248,0.0037385584676209345,-0.02116431576517534,0.9997596557340368,0.01608823426067829,0.031468715518713,-0.04516197741031647,0.0028467178344726562,-9.709596633911133e-05,-0.001764059066772461
2025-09-18T12:34:53Z,0.007857173502706906,-0.008481160751241166,-0.0431943166877154,-0.19619056582450867,-0.3199060261249542,-0.9269139170646667,-0.004154707212474049,0.004019201468160675,-0.021611773777980556,0.999749742384116,0.01737244240939617,0.031924549490213394,-0.041608452796936035,0.002934277057647705,-0.0008291304111480713,-0.0010477900505065918
2025-09-18T12:34:53Z,0.008478228807637819,-0.00811670343031684,-0.044019811635913904,-0.1953452229499817,-0.3204110860824585,-0.9269180297851562,-0.003964027188511884,0.004327355694004975,-0.02202494913623907,0.9997402077468276,0.017972907051444054,0.034281205385923386,-0.03873249143362045,0.0024003535509109497,-0.003177821636199951,-0.0020519495010375977
2025-09-18T12:34:53Z,0.009082741049000009,-0.0077180593135163225,-0.04486481720247929,-0.19450883567333221,-0.3209514617919922,-0.926906943321228,-0.0037561452672858556,0.00462673763699761,-0.022447650436418123,0.9997302254819856,0.0241863876581192,0.03386616334319115,-0.045349039137363434,0.0021525174379348755,-0.0071443915367126465,-0.0032294392585754395
2025-09-18T12:34:53Z,0.009798177499459286,-0.007198357056012588,-0.04593040059642881,-0.19349756836891174,-0.3216482102870941,-0.9268770813941956,-0.0034856812044088063,0.004980393296260439,-0.022980386575627437,0.9997173802699542,0.029766766354441643,0.03592146933078766,-0.058642517775297165,0.0022219717502593994,-0.010878771543502808,-0.00500035285949707
2025-09-18T12:34:53Z,0.010530295667905415,-0.006491897855129738,-0.04727369460709871,-0.1923801451921463,-0.32257339358329773,-0.9267881512641907,-0.0031205529884645263,0.005340340937548791,-0.02365128086031126,0.9997010900942126,0.034191444516181946,0.04478347301483154,-0.07473163306713104,0.001966431736946106,-0.01203814148902893,-0.004742562770843506
2025-09-18T12:34:53Z,0.011343619400227465,-0.005758399373366641,-0.048889053155738174,-0.19109798967838287,-0.3235776424407959,-0.9267033338546753,-0.0027396597849464045,0.005740434047868858,-0.024457924251610655,0.9996805766427256,0.03640769049525261,0.04101061075925827,-0.08628684282302856,0.00021545588970184326,-0.008053392171859741,-0.0016918182373046875
2025-09-18T12:34:53Z,0.012094632397524976,-0.005012936812210205,-0.050724969660813954,-0.18980075418949127,-0.3246362805366516,-0.9265996813774109,-0.0023522568096258135,0.006108877875544972,-0.025374375582865923,0.9996565583998832,0.03887685388326645,0.03363712504506111,-0.0934130847454071,0.0004053562879562378,-0.008137643337249756,-0.0004748106002807617
2025-09-18T12:34:53Z,0.012789171175592222,-0.0042137882644200835,-0.0527531781107776,-0.18849226832389832,-0.32578176259994507,-0.9264647364616394,-0.001937470425384243,0.006447868812553767,-0.026386401764371223,0.9996291116616076,0.041066501289606094,0.03421204537153244,-0.10141640901565552,-6.805360317230225e-05,-0.008583486080169678,-0.0032249093055725098
2025-09-18T12:34:53Z,0.013548841760751757,-0.003331055087287021,-0.054958868156136806,-0.18706472218036652,-0.32703831791877747,-0.9263113737106323,-0.0014787276458676983,0.006817563116259702,-0.027486586239188374,0.9995978171802364,0.04314134642481804,0.04100518673658371,-0.10982254892587662,0.0012419968843460083,-0.007309287786483765,-0.0041280388832092285
2025-09-18T12:34:53Z,0.014356172333172556,-0.0023984760732337585,-0.0572668829805169,-0.18555884063243866,-0.3283593952655792,-0.9261468648910522,-0.0009932119615972221,0.0072094095923616874,-0.028637374848777167,0.9995633965975554,0.04729602113366127,0.036055341362953186,-0.11501104384660721,-0.0017796754837036133,-0.006621688604354858,0.00042831897735595703
2025-09-18T12:34:53Z,0.014937775024876782,-0.001355745890993122,-0.05963589028103029,-0.1842416673898697,-0.32979217171669006,-0.9259006977081299,-0.0004548809088513687,0.007485705375392023,-0.02981774844065519,0.9995272371399114,0.05386842414736748,0.023569226264953613,-0.11207933723926544,-0.0031153112649917603,-0.004419386386871338,0.005039989948272705
2025-09-18T12:34:53Z,0.015202342214044224,-0.00022317273249325165,-0.061893898323801586,-0.1832544505596161,-0.33128371834754944,-0.9255641102790833,0.0001236635497889348,0.007600911184601339,-0.030941964447159097,0.9994922394720227,0.059425774961709976,0.007853545248508453,-0.103237584233284,-0.004801258444786072,-0.0005322098731994629,0.005999505519866943
2025-09-18T12:34:53Z,0.015332231000530045,0.001007213630060212,-0.06382329750716927,-0.18250063061714172,-0.3327987492084503,-0.9251694679260254,0.0007479300818516681,0.007646068942313708,-0.031901433610309705,0.9994614587138011,0.06263858079910278,0.0032329820096492767,-0.08852395415306091,-0.002807796001434326,0.002388089895248413,0.002329111099243164
2025-09-18T12:34:53Z,0.015392718376155077,0.0023064571057636357,-0.06545828034036927,-0.18190854787826538,-0.3343178331851959,-0.9247382879257202,0.001404424158685456,0.007654420086324177,-0.032713435767423686,0.9994344668255696,0.06586960703134537,0.011220287531614304,-0.07442744076251984,0.0003324449062347412,0.0019518136978149414,-0.00130462646484375
2025-09-18T12:34:53Z,0.0158998332904834,0.0036507503661141706,-0.06671834868267866,-0.18102805316448212,-0.3358035683631897,-0.924372673034668,0.002089451313477042,0.007884517294246553,-0.03333737630968078,0.9994108189499561,0.05998165160417557,0.018324151635169983,-0.05353964492678642,0.0014766901731491089,0.005315661430358887,-0.008977413177490234
2025-09-18T12:34:53Z,0.01594856829931773,0.005045371469107648,-0.06762901765937207,-0.18068771064281464,-0.33726629614830017,-0.9239065647125244,0.002790752375464334,0.007884331878063056,-0.03378677964462773,0.9993940129114031,0.07862266898155212,0.014173103496432304,-0.04324983060359955,-0.0005594491958618164,-0.0006596744060516357,0.00019556283950805664
2025-09-18T12:34:53Z,0.016083761261566343,0.006820156604361762,-0.06841020194452054,-0.1803126037120819,-0.3390527069568634,-0.9233258366584778,0.0036829822781342864,0.007920428534535923,-0.03416972234145077,0.9993777954285806,0.09667724370956421,-0.004854841157793999,-0.03249075636267662,-0.001739218831062317,-0.0038153231143951416,0.007539331912994385
2025-09-18T12:34:53Z,0.015906714321280626,0.008867506099526747,-0.06912260928742851,-0.18025007843971252,-0.3410751223564148,-0.9225928783416748,0.004705769081763679,0.007795245723838882,-0.03451775283275245,0.9993625329130458,0.11118696630001068,-0.005799421109259129,-0.03253756836056709,0.00019106268882751465,-0.005652964115142822,0.003911852836608887
2025-09-18T12:34:54Z,0.015716520096578465,0.011153871637380826,-0.06982793887837915,-0.18020302057266235,-0.34331414103507996,-0.921771228313446,0.005847636901687665,0.0076586023097637,-0.03486146159420066,0.9993456076783137,0.12005538493394852,-0.00810737069696188,-0.033781226724386215,0.0006536096334457397,-0.0035757124423980713,0.0020435452461242676
2025-09-18T12:34:54Z,0.015584199927216578,0.013568334364240455,-0.07049264186864891,-0.18011660873889923,-0.3456609547138214,-0.9209107160568237,0.007054273173471337,0.007547944502496566,-0.035184316027205655,0.9993273743293483,0.12369187921285629,-0.010432876646518707,-0.030055584385991096,-0.0009554475545883179,-0.0014573633670806885,0.004888951778411865
2025-09-18T12:34:54Z,0.015363560075175845,0.016189065653617756,-0.07097949228514822,-0.18017156422138214,-0.34816017746925354,-0.9199579954147339,0.00836166488864611,0.007389415293080115,-0.03541794960475643,0.9993102216001949,0.1355878859758377,-0.008518527261912823,-0.0196407251060009,-0.0009517967700958252,-0.000588148832321167,0.004791200160980225
2025-09-18T12:34:54Z,0.015195897233965175,0.019081428925656646,-0.07142155938550641,-0.18019387125968933,-0.3508971035480499,-0.9189131855964661,0.009805468461286363,0.007252067260345533,-0.03562809487905095,0.9992906395692129,0.15390408039093018,0.004592444747686386,-0.01722014881670475,0.0029193609952926636,-0.004770725965499878,-0.000845491886138916
2025-09-18T12:34:54Z,0.015494364847740378,0.022291335499064497,-0.07178480330893257,-0.17981606721878052,-0.3539062738418579,-0.9178324937820435,0.01141591002524462,0.007341696039110795,-0.03579510196423287,0.9992669398883034,0.1651894599199295,0.018591545522212982,-0.01146257296204567,0.006292462348937988,-0.0027105510234832764,-0.007338762283325195
2025-09-18T12:34:54Z,0.01584985032693525,0.025565338024572896,-0.07194980796915149,-0.17945320904254913,-0.3569318652153015,-0.9167312383651733,0.013058660775816765,0.007459338861296163,-0.03586184685453033,0.9992435303804736,0.15961061418056488,0.020906878635287285,0.0023891646414995193,0.0053723156452178955,0.004215925931930542,-0.012469351291656494
2025-09-18T12:34:54Z,0.016222573792526295,0.028343453095504543,-0.07134977338360635,-0.17932762205600739,-0.35935264825820923,-0.9158096313476562,0.01445104573423191,0.007599789310584034,-0.0355476940769768,0.9992345464652397,0.1405373513698578,0.017321869730949402,0.027108941227197647,0.00409051775932312,0.006553709506988525,-0.008088529109954834
2025-09-18T12:34:54Z,0.016593647329773035,0.031121817079433747,-0.07075072179493308,-0.17920397222042084,-0.36177098751068115,-0.9148812294006348,0.015843413894277014,0.007740217334165975,-0.03523346689994192,0.9992234939517691,0.12146409600973129,0.013736860826611519,0.051828719675540924,0.002810657024383545,0.008889079093933105,-0.003714442253112793
2025-09-18T12:34:54Z,0.016956956515632598,0.033492249934678676,-0.0695544447067463,-0.17928446829319,-0.36369866132736206,-0.9141008257865906,0.017029369718874376,0.007889844095149626,-0.03462220156031512,0.9992241887008285,0.10910328477621078,0.02477588690817356,0.07142912596464157,0.004537522792816162,0.007400333881378174,-0.0026159286499023438
2025-09-18T12:34:54Z,0.017397868221878245,0.03561412988935106,-0.0679386558681822,-0.17943239212036133,-0.36531582474708557,-0.9134266972541809,0.018090567985724476,0.008087704934563662,-0.03380132351800903,0.9992320868705009,0.10225635021924973,0.019603639841079712,0.08945834636688232,0.004434108734130859,0.006668210029602051,0.003984630107879639
2025-09-18T12:34:54Z,0.017742951560317282,0.037483907297531295,-0.06589702058487358,-0.17980776727199554,-0.366617888212204,-0.9128310680389404,0.019022141173982803,0.008247639829417749,-0.03276930014733104,0.9992478918236319,0.08762090653181076,0.025704631581902504,0.11343216150999069,0.003550782799720764,0.00929155945777893,7.671117782592773e-05
2025-09-18T12:34:54Z,0.018172600099378745,0.0390256069289485,-0.06341960317711799,-0.1802479475736618,-0.36753347516059875,-0.9123759269714355,0.01978896824310488,0.008461299453373176,-0.031519945926685396,0.9992714277224174,0.06552775204181671,0.02468004822731018,0.1366807371377945,0.002770334482192993,0.008089184761047363,2.09808349609375e-05
2025-09-18T12:34:54Z,0.018650358373484454,0.040219417702054804,-0.06046199712296579,-0.18080006539821625,-0.36803528666496277,-0.9120643734931946,0.020380096012358673,0.008711121638952908,-0.0300315413376002,0.9993032468551583,0.04713720828294754,0.02577834017574787,0.158049076795578,0.0008667111396789551,0.00849565863609314,-0.003820478916168213
2025-09-18T12:34:54Z,0.018995093112480783,0.04109977024761692,-0.05708602225176659,-0.18160808086395264,-0.3681659698486328,-0.9118510484695435,0.020810132189340445,0.00890512224659887,-0.02833674453868812,0.9993421545894734,0.031773872673511505,0.02763276919722557,0.17593814432621002,0.00032594799995422363,0.0055758655071258545,-0.00373077392578125
2025-09-18T12:34:54Z,0.019476530011516665,0.0416717088325951,-0.05313552461290183,-0.1824764758348465,-0.3678976893424988,-0.9117859601974487,0.021084641172110778,0.00917913128755273,-0.026354797292939647,0.9993880645152458,0.02542947232723236,0.036774035543203354,0.19097387790679932,0.0016050934791564941,0.003884732723236084,-0.0031281113624572754
2025-09-18T12:34:54Z,0.01995567743528186,0.04224546905809766,-0.049185198376992305,-0.18334391713142395,-0.3676259219646454,-0.9117215275764465,0.021359024257138794,0.009453085128379604,-0.024372735500414026,0.9994300062779693,0.019085071980953217,0.045915305614471436,0.2060096263885498,0.00288332998752594,0.002190142869949341,-0.002524733543395996
2025-09-18T12:34:54Z,0.020810561520175973,0.042648281728149544,-0.04505372401137821,-0.1839238405227661,-0.36715707182884216,-0.9117937088012695,0.021550282450699367,0.009919825301438158,-0.022296810641382173,0.9994698510232045,0.012846376746892929,0.052785344421863556,0.20847998559474945,0.001994311809539795,-0.00017157196998596191,-0.00013315677642822266
2025-09-18T12:34:54Z,0.021670074111174633,0.04283560664598593,-0.04079107186280282,-0.18453724682331085,-0.36646023392677307,-0.9119500517845154,0.021631371069852436,0.010393348923883699,-0.02015625563395473,0.9995087675770011,-0.0030145253986120224,0.05390685424208641,0.21366344392299652,0.0009222328662872314,0.0009936988353729248,0.0035636425018310547
2025-09-18T12:34:54Z,0.022457815165319372,0.042748125855430245,-0.036517560146752726,-0.18521355092525482,-0.36550575494766235,-0.9121959805488586,0.021572489233121148,0.010834047132448028,-0.018012500177696202,0.9995463078095405,-0.01474709901958704,0.04118909314274788,0.212514266371727,-0.0008206814527511597,0.0010815560817718506,0.008038818836212158
2025-09-18T12:34:54Z,0.02304507286832439,0.042427261179468254,-0.03227201129594995,-0.1860576868057251,-0.3643392026424408,-0.9124908447265625,0.021393743720382264,0.011175949201354795,-0.015886224734390348,0.9995824357429174,-0.024263756349682808,0.034401100128889084,0.2066657990217209,-0.0002383887767791748,0.00019744038581848145,0.007137894630432129
2025-09-18T12:34:54Z,0.023527885812503254,0.041844734636811015,-0.02826047892366253,-0.18691504001617432,-0.3629778325557709,-0.9128580689430237,0.021083485426213872,0.011464336060926051,-0.013879617251204379,0.9996156822585844,-0.036920320242643356,0.03340758755803108,0.18865951895713806,0.003575742244720459,-0.0036469101905822754,0.008938014507293701
2025-09-18T12:34:54Z,0.024124220302809907,0.04109887338864242,-0.024658488072083064,-0.18753112852573395,-0.36154842376708984,-0.9132988452911377,0.020693610914014116,0.011805037552497266,-0.01207760408349276,0.9996432604293828,-0.048938360065221786,0.03786306828260422,0.17108100652694702,0.005019441246986389,-0.005139738321304321,0.0076163411140441895
2025-09-18T12:34:54Z,0.024837650953604754,0.04000941217598082,-0.021487943049310367,-0.18789470195770264,-0.3598930835723877,-0.9138777852058411,0.02013406840014859,0.012200409158808184,-0.010492388510797679,0.9996678489872269,-0.06827846169471741,0.04318131133913994,0.14532001316547394,0.004998937249183655,-0.0052838921546936035,0.0038174986839294434
2025-09-18T12:34:54Z,0.025575625080694945,0.03849398187150039,-0.018728014467195568,-0.1880967766046524,-0.3579334020614624,-0.9146055579185486,0.019363102058078993,0.012604333782075428,-0.009115275790364032,0.9996915724601056,-0.09148472547531128,0.04336963966488838,0.12406903505325317,0.005721002817153931,-0.004310965538024902,0.0009260773658752441
2025-09-18T12:34:54Z,0.026351551323691817,0.03650948882130804,-0.016343290824759226,-0.1881365031003952,-0.3556230366230011,-0.9154981970787048,0.01835918124549724,0.013023610311063858,-0.007928991327002742,0.9997152436753123,-0.11033827066421509,0.03987763449549675,0.11034516245126724,0.005797028541564941,-0.0016817152500152588,0.00035578012466430664
2025-09-18T12:34:54Z,0.02682019558338443,0.034410669047893125,-0.014206850473742434,-0.1883745640516281,-0.35325801372528076,-0.9163644313812256,0.01729774508048482,0.013285174454459862,-0.006870974620164752,0.9997384794970868,-0.10988408327102661,0.003666788339614868,0.09155403077602386,0.0056213438510894775,-0.008642137050628662,0.007730543613433838
2025-09-18T12:34:54Z,0.02664662007326002,0.03271561879675151,-0.012458385972284712,-0.18907935917377472,-0.3513408601284027,-0.9169561862945557,0.016438290036217565,0.013218993162048349,-0.00600984671089512,0.9997594426425683,-0.06851053237915039,0.0004856153391301632,0.0794902890920639,0.003024652600288391,-0.011930465698242188,0.009158551692962646
2025-09-18T12:34:54Z,0.02643249967625322,0.031727993932829615,-0.010946469844920974,-0.18975168466567993,-0.3501174747943878,-0.917285144329071,0.0159340323650789,0.013127188250321525,-0.005262396367132273,0.9997730379735744,-0.035833362489938736,-0.028590574860572815,0.06413450837135315,0.0006571561098098755,-0.01176413893699646,0.006659984588623047
2025-09-18T12:34:54Z,0.025670801782518623,0.03128450952031181,-0.009771595056063022,-0.190823033452034,-0.34946155548095703,-0.9173130393028259,0.015702842799817245,0.012756909516097956,-0.0046840193241868625,0.9997843785264066,-0.015912232920527458,-0.0491042360663414,0.056608956307172775,-0.0001421123743057251,-0.0047758519649505615,0.0017049312591552734
2025-09-18T12:34:54Z,0.024540744204146307,0.031216595623853323,-0.008556776787513742,-0.1922481209039688,-0.34913915395736694,-0.9171382188796997,0.015658835758787213,0.01220168685152297,-0.0040860268621331465,0.9997945959699773,0.002927880734205246,-0.058716364204883575,0.06419564038515091,-5.5477023124694824e-05,0.0017778575420379639,0.0001246929168701172
2025-09-18T12:34:54Z,0.02324370041010095,0.031463879584148396,-0.007171974298816409,-0.19388282299041748,-0.34906724095344543,-0.9168214201927185,0.015771796673229328,0.011563667270714804,-0.0034024721045406753,0.9998029771862248,0.010803913697600365,-0.06557492166757584,0.0770973265171051,0.00016699731349945068,0.0033123791217803955,-0.005467355251312256
2025-09-18T12:34:54Z,0.021995637244980833,0.03188132705188422,-0.005383699214245253,-0.19560198485851288,-0.34906288981437683,-0.9164578318595886,0.0159685666930688,0.010953254370923851,-0.0025160406424542684,0.9998093382013472,0.015116202645003796,-0.05525429919362068,0.09323578327894211,0.0013674348592758179,0.0037797093391418457,-0.012687385082244873
2025-09-18T12:34:54Z,0.02083151622484454,0.03223055171072328,-0.003437163919496276,-0.19729295372962952,-0.3489610552787781,-0.9161341190338135,0.01613157857268225,0.010386509550540466,-0.0015504225170233923,0.9998146983403298,0.010592927224934101,-0.05821385979652405,0.09624785929918289,0.0012224018573760986,0.0014701783657073975,-0.01130056381225586
2025-09-18T12:34:54Z,0.019620198404443182,0.03247462087821737,-0.0015050744089243394,-0.19902051985263824,-0.3487652540206909,-0.9158349633216858,0.01624319273284418,0.009796428024913522,-0.0005931217039859722,0.9998198845599707,0.009205721318721771,-0.05219236761331558,0.09267743676900864,0.0003923475742340088,-0.00419047474861145,-0.01155167818069458
2025-09-18T12:34:54Z,0.018746439202601495,0.03257513163901708,0.000360262300563612,-0.20041559636592865,-0.3484518527984619,-0.9156500101089478,0.016284442240193837,0.009374772845191464,0.0003327573052386606,0.9998233679488162,-0.0010583829134702682,-0.039248328655958176,0.09120148420333862,0.0007409900426864624,-0.003314197063446045,-0.011004269123077393
2025-09-18T12:34:54Z,0.017955863376531944,0.032464018833513374,0.0021783864639867475,-0.20171724259853363,-0.3479546904563904,-0.9155532121658325,0.016220856164233976,0.008994301682491454,0.0012347271238770596,0.9998271797877377,-0.009130445308983326,-0.042624425143003464,0.08784874528646469,0.0009896308183670044,-0.005125463008880615,-0.00541764497756958
2025-09-18T12:34:54Z,0.017146028782805422,0.03219723272570294,0.003983052886096542,-0.2030305713415146,-0.34731748700141907,-0.9155048727989197,0.016080227206047317,0.008603840085393857,0.002129199730438518,0.9998313790549826,-0.02168085053563118,-0.034341052174568176,0.08756886422634125,0.0013336390256881714,-0.004240512847900391,-0.009399712085723877
2025-09-18T12:34:54Z,0.016530277539259834,0.031708405230638136,0.005692110774843135,-0.20413397252559662,-0.34649765491485596,-0.9155701398849487,0.015829413429627848,0.008309091181765583,0.002976626437780865,0.9998357211520452,-0.030747028067708015,-0.020746903494000435,0.08100836724042892,0.0014180690050125122,-0.006615728139877319,-0.009846687316894531
2025-09-18T12:34:54Z,0.016034509120190096,0.03108982544225265,0.007388660268655114,-0.20512236654758453,-0.3455611765384674,-0.9157031774520874,0.015514066885114766,0.008073569231742048,0.0038183770586694356,0.999839745373844,-0.03250858932733536,-0.022381987422704697,0.08616145700216293,-0.0017336457967758179,-0.0046728551387786865,0.002667069435119629
2025-09-18T12:34:54Z,0.01562427595189625,0.03044216454555799,0.009264957025825242,-0.20608869194984436,-0.3445574939250946,-0.9158644080162048,0.015183682642353612,0.007881576363236926,0.004750686345310106,0.9998423229426708,-0.030149564146995544,-0.022249244153499603,0.09327911585569382,-0.003753960132598877,-0.0038703978061676025,0.004199028015136719
2025-09-18T12:34:54Z,0.015200458836072666,0.029896241396901474,0.011122453499334916,-0.20706148445606232,-0.34364956617355347,-0.9159860610961914,0.014904640052127998,0.007682313670919912,0.005674018299636442,0.999843298632004,-0.03102743811905384,-0.015567215159535408,0.08298160135746002,0.000876203179359436,-0.009754300117492676,-0.004724323749542236
2025-09-18T12:34:54Z,0.015134753497702406,0.029178583946741964,0.012602377047137995,-0.20758545398712158,-0.34266725182533264,-0.9162354469299316,0.014540389775493467,0.007658272522333178,0.006410691490194157,0.9998443829804238,-0.03895553573966026,0.011750824749469757,0.06339309364557266,0.006093516945838928,-0.008356750011444092,-0.012611210346221924
