timestamp,attitude_roll,attitude_pitch,attitude_yaw,gravity_x,gravity_y,gravity_z,quaternion_x,quaternion_y,quaternion_z,quaternion_w,rotation_rate_x,rotation_rate_y,rotation_rate_z,user_acceleration_x,user_acceleration_y,user_acceleration_z
2025-09-20T01:56:36Z,0.04073190351963739,-0.03074296110809771,0.03456605263381236,-0.07528074830770493,-0.24139127135276794,-0.967503547668457,-0.015717294910706264,0.020093510773260614,0.016963567129452475,0.9995305831080771,0.26954150199890137,0.019944319501519203,0.08192596584558487,0.0010176002979278564,-0.02077840268611908,-0.01424938440322876
2025-09-20T01:56:36Z,0.04123119441020855,-0.025238198632477015,0.03578212780232749,-0.07518225908279419,-0.24655263125896454,-0.966208815574646,-0.012982824166090897,0.02038349437890869,0.01762480107673226,0.9995525294767927,0.27029797434806824,0.03670927882194519,0.05175447836518288,0.002261623740196228,-0.013240382075309753,-0.011716127395629883
2025-09-20T01:56:36Z,0.04196146740824224,-0.02021691486754612,0.03675756884632518,-0.0747930034995079,-0.2512691915035248,-0.9650232195854187,-0.010489885064497296,0.020788854125061422,0.01816073936426666,0.9995638417922363,0.23529759049415588,0.042426712810993195,0.06243494153022766,-0.0038183853030204773,0.001461416482925415,-0.006789863109588623
2025-09-20T01:56:36Z,0.0424712497248841,-0.015607359171870535,0.03780376667430188,-0.07463356107473373,-0.2555757761001587,-0.9639039635658264,-0.00820177469148767,0.02108212957809068,0.018730249545272856,0.9995685848701393,0.2152186930179596,0.01486986130475998,0.057509344071149826,-0.006492882966995239,-0.0038759708404541016,0.0015902519226074219
2025-09-20T01:56:36Z,0.04285180393212614,-0.011097059409821565,0.038593299048095685,-0.07452993094921112,-0.2598111927509308,-0.9627790451049805,-0.005959579793804901,0.021312909173802335,0.01917187684840071,0.999571195115002,0.2131272554397583,0.010182447731494904,0.038339678198099136,0.0034312009811401367,-0.016910582780838013,-0.0033631324768066406
2025-09-20T01:56:36Z,0.043081997102300505,-0.0067845325845915195,0.03894985398579131,-0.07445328682661057,-0.2639019191265106,-0.9616717100143433,-0.003810277891532031,0.021469080813187408,0.01939601386390789,0.9995740378013405,0.2078283280134201,-7.534399628639221e-05,0.018886853009462357,0.0024280846118927,-0.018855422735214233,-0.00608140230178833
2025-09-20T01:56:36Z,0.04294833540968174,-0.003021528570053138,0.03912795011551311,-0.07467286288738251,-0.2674827575683594,-0.9606648683547974,-0.0019301870818308217,0.021438837535657448,0.019525762226767322,0.99957752724642,0.17687363922595978,-0.011445644311606884,0.018415898084640503,-0.004238307476043701,-0.007395923137664795,-0.010724127292633057
2025-09-20T01:56:36Z,0.04268314991028803,-8.495084945795178e-05,0.03965018012252749,-0.07510235905647278,-0.27023011445999146,-0.9598621129989624,-0.00046549631917983656,0.02133492113104917,0.01981837229498638,0.9995757546633396,0.13268157839775085,-0.0037272959016263485,0.04052875563502312,-0.0032457858324050903,0.0035954713821411133,-0.013103365898132324
2025-09-20T01:56:36Z,0.0428149231209841,0.002514831909126746,0.04044073900496288,-0.07521952688694,-0.2726222276687622,-0.9591763019561768,0.0008240666331812517,0.021426853792308503,0.020241255495845847,0.9995650520464832,0.12790383398532867,0.006104183848947287,0.04287393391132355,0.0008099749684333801,-0.011991739273071289,-0.00941455364227295
2025-09-20T01:56:36Z,0.042994926240204526,0.005489713482952877,0.0409026948710459,-0.07520660012960434,-0.275408536195755,-0.9583809971809387,0.0023040594409284324,0.021547352882209252,0.020504112635218372,0.9995547697956217,0.1585008054971695,-0.002180779818445444,0.0182432159781456,-0.00031181424856185913,-0.033433616161346436,-0.003345489501953125
2025-09-20T01:56:36Z,0.04262597962262574,0.009072317070631152,0.040755753317753045,-0.07556284219026566,-0.27884262800216675,-0.9573594331741333,0.004099925356882321,0.021399143678873443,0.020468282016125,0.9995529783854475,0.196852907538414,-0.03596600517630577,-0.017454538494348526,-0.005000099539756775,-0.040362268686294556,-0.001701056957244873
2025-09-20T01:56:36Z,0.04174103683487245,0.012938491876379526,0.04034139727551403,-0.07634346932172775,-0.28257420659065247,-0.9562026262283325,0.006045571601212975,0.020994774073752897,0.02029949622036468,0.9995551296819122,0.21344193816184998,-0.047628290951251984,-0.011736489832401276,-0.004631064832210541,-0.02432265877723694,-0.007357597351074219
2025-09-20T01:56:36Z,0.04085409450451956,0.01718426669570115,0.04001532237437309,-0.07715286314487457,-0.28665226697921753,-0.9549229741096497,0.008179889748201623,0.020592645549094013,0.02017687831971422,0.9995507797161347,0.22042612731456757,-0.043851785361766815,0.0030802590772509575,-0.0033149272203445435,-0.01647394895553589,-0.010412395000457764
2025-09-20T01:56:36Z,0.03976857467097849,0.022018170943554988,0.03979933241921538,-0.07818662375211716,-0.2912708520889282,-0.9534401297569275,0.010608894149262438,0.02009685296965383,0.020112061609581244,0.9995393172207656,0.24638544023036957,-0.06677084416151047,-0.0012403340078890324,-0.00632738322019577,-0.020611584186553955,-0.005976974964141846
2025-09-20T01:56:37Z,0.038287975805100224,0.027477991816494355,0.03954841303362121,-0.07959187775850296,-0.2964801490306854,-0.9517167210578918,0.013354888001487054,0.019408872872754734,0.020030373710295965,0.999521679236038,0.27004605531692505,-0.08892087638378143,0.004223600961267948,-0.00842440128326416,-0.013686269521713257,-0.004188477993011475
2025-09-20T01:56:37Z,0.03614655197960085,0.03272722595657633,0.03963329245796831,-0.0817093551158905,-0.30144232511520386,-0.949976921081543,0.015998938255586997,0.01839050910179254,0.020105118607190112,0.9995006176722329,0.2507075071334839,-0.0994955524802208,0.013823820278048515,-0.00737462192773819,-0.0031302273273468018,-0.0046620965003967285
2025-09-20T01:56:37Z,0.03400427183363281,0.03797626249913964,0.039729441102284976,-0.08382447808980942,-0.3063947260379791,-0.9482066035270691,0.018642858276309012,0.017371991348212146,0.020179704415433094,0.9994715160742581,0.23136894404888153,-0.11007023602724075,0.023424038663506508,-0.006327196955680847,0.007416039705276489,-0.005166292190551758
2025-09-20T01:56:37Z,0.0317823898700433,0.04225042724545705,0.0399915460934076,-0.08604372292757034,-0.31039977073669434,-0.9467039704322815,0.020799103848849733,0.016306108432428083,0.020323056182614912,0.9994439798337414,0.18388411402702332,-0.1110137552022934,0.013229943811893463,-0.002543829381465912,0.00922730565071106,-0.006466031074523926
2025-09-20T01:56:37Z,0.02962969099301888,0.04531096474869538,0.040008609837705406,-0.08811438083648682,-0.3132839500904083,-0.9455628395080566,0.022350273806742746,0.015260628120259264,0.020331173713773198,0.9994268802113592,0.12152029573917389,-0.09641065448522568,-0.002547459676861763,-0.0004960745573043823,0.013587504625320435,-0.011437594890594482
2025-09-20T01:56:37Z,0.027903625354233373,0.04698259414764044,0.04005607911555955,-0.08977381885051727,-0.31485357880592346,-0.9448851346969604,0.023202818565076742,0.014415078400937857,0.020346867254309228,0.9994197027416609,0.05654820054769516,-0.06331086903810501,0.002717968076467514,0.00039402395486831665,0.025049567222595215,-0.013874650001525879
2025-09-20T01:56:37Z,0.02686450501790654,0.04727276143428637,0.04036489294698933,-0.09084144979715347,-0.315091073513031,-0.9447038769721985,0.023356243343446124,0.01390228331644067,0.020491006936771618,0.9994204182830575,0.005070231854915619,-0.0279446579515934,0.024742787703871727,-0.0016910210251808167,0.026913702487945557,-0.009913980960845947
2025-09-20T01:56:37Z,0.0264139634670714,0.04702607028570823,0.040706291273962004,-0.09135718643665314,-0.3148190677165985,-0.9447448253631592,0.023235247851156993,0.013678659137608525,0.020654776305894105,0.9994229578783458,-0.001241631805896759,-0.024151526391506195,0.0028486158698797226,-0.0077896565198898315,0.006776988506317139,-0.006592273712158203
2025-09-20T01:56:37Z,0.02595305878574031,0.046956330433032635,0.04050429241359982,-0.09173750877380371,-0.31477680802345276,-0.944722056388855,0.023206515542686493,0.013445297235879996,0.020548044485476223,0.9994289636763847,0.023036153987050056,-0.029320746660232544,-0.01806715689599514,-0.014287427067756653,-0.004462331533432007,-0.014016330242156982
2025-09-20T01:56:37Z,0.025336800189271612,0.04741566836040926,0.03989979153328398,-0.09216012060642242,-0.31527960300445557,-0.9445132613182068,0.02344635788590585,0.013134837774163771,0.020241612778811466,0.9994337494543032,0.0630704015493393,-0.03845649212598801,-0.04398341476917267,-0.0179755836725235,-0.016374588012695312,-0.026252269744873047
2025-09-20T01:56:37Z,0.024764298671155243,0.048813908823991975,0.038848835928873705,-0.09242789447307587,-0.3167179524898529,-0.9440057277679443,0.024157635725220405,0.01284978886021236,0.01971804054413156,0.9994310030103852,0.11790625751018524,-0.024955768138170242,-0.05879736319184303,-0.011780798435211182,-0.022197335958480835,-0.034155309200286865
2025-09-20T01:56:37Z,0.024369773596806494,0.05155439466722514,0.037584321156425404,-0.09247981756925583,-0.3194426894187927,-0.9430820941925049,0.025538996556900753,0.012662679396216668,0.019097413887992888,0.9994110648263047,0.17603597044944763,-0.02235233597457409,-0.058754075318574905,-0.009263642132282257,-0.019551187753677368,-0.02710968255996704
2025-09-20T01:56:37Z,0.023733873632484078,0.05560781867040782,0.03639816603324154,-0.09278969466686249,-0.32338905334472656,-0.9417057037353516,0.027577901426891423,0.012365985354019586,0.018519607731718818,0.9993715105860248,0.24041205644607544,-0.03630352392792702,-0.054284971207380295,-0.013063281774520874,-0.017471015453338623,-0.01361936330795288
2025-09-20T01:56:37Z,0.02268809284926231,0.061068131645560735,0.03536187489452811,-0.09353450685739517,-0.3286316692829132,-0.9398151636123657,0.030322122723816555,0.011876468380776927,0.018016903969187183,0.9993071366864567,0.3081079125404358,-0.06264794617891312,-0.03326252102851868,-0.017181284725666046,-0.017093926668167114,-0.0026979446411132812
2025-09-20T01:56:37Z,0.021176440438418126,0.06783411311345118,0.03486041467038641,-0.09486689418554306,-0.33502426743507385,-0.937421441078186,0.03371907097035954,0.011171332075421168,0.01777731787982866,0.9992106508481383,0.3726399540901184,-0.07418610155582428,-0.004049960523843765,-0.014717310667037964,-0.019516825675964355,-0.004322052001953125
2025-09-20T01:56:37Z,0.019683608485416434,0.07566844677310541,0.03488056188138279,-0.0963238924741745,-0.34233832359313965,-0.9346262216567993,0.03764610755710666,0.010492724473846046,0.01779827987477449,0.9990774361317968,0.4142972230911255,-0.06906852126121521,0.018923312425613403,-0.007784225046634674,-0.01838168501853943,-0.008476495742797852
2025-09-20T01:56:37Z,0.01823151629903405,0.08364417500999957,0.03566943548343224,-0.0979447290301323,-0.3496748208999634,-0.9317372441291809,0.041639092019417706,0.00985181124529572,0.01819850324471028,0.9989182603593438,0.38748621940612793,-0.06077052652835846,0.04820364713668823,-0.00760311633348465,-0.005876809358596802,-0.009804725646972656
2025-09-20T01:56:37Z,0.01677209768613778,0.0916187635132018,0.0364704957632824,-0.09956836700439453,-0.3569866120815277,-0.9287877678871155,0.04563139422189345,0.009210739721883762,0.018598427905076077,0.9987425727096105,0.36067521572113037,-0.05247253179550171,0.07748398184776306,-0.007419198751449585,0.006603360176086426,-0.011193394660949707
2025-09-20T01:56:37Z,0.01569140124246701,0.09821550136585945,0.038133576774918146,-0.10105898231267929,-0.36290299892425537,-0.9263306856155396,0.04892818444963067,0.008770603630244721,0.01942712003848879,0.9985747582799949,0.2959464192390442,-0.03374839574098587,0.0883605033159256,-0.001629851758480072,0.011414885520935059,-0.009631454944610596
2025-09-20T01:56:37Z,0.014952505877268008,0.10324026406829839,0.03986396331621201,-0.10223836451768875,-0.36734509468078613,-0.9244484305381775,0.05143671828217983,0.008493080746535046,0.02028923341034276,0.9984339047475103,0.21026824414730072,-0.013960937038064003,0.08559057116508484,0.007310450077056885,0.013723194599151611,-0.0039261579513549805
2025-09-20T01:56:37Z,0.01469474047264423,0.1063780440516828,0.041581977501589804,-0.10295747965574265,-0.37004023790359497,-0.9232929944992065,0.05299849626118803,0.00844055049753809,0.021150059508650287,0.9983348077356073,0.12227649241685867,0.005780160427093506,0.08078949898481369,0.00850076973438263,0.01467248797416687,-0.0012375712394714355
2025-09-20T01:56:37Z,0.014599624834686565,0.10766155281643214,0.043113531041109814,-0.10346543043851852,-0.37104520201683044,-0.9228327870368958,0.053633734759335985,0.008447217628515791,0.02191597186372253,0.9982843025783048,0.03835795074701309,-0.0034421905875205994,0.06817903369665146,0.0022652894258499146,0.010044097900390625,-0.00164031982421875
2025-09-20T01:56:37Z,0.014492990030893096,0.10692330774040845,0.04459220755803817,-0.10395853966474533,-0.3701927959918976,-0.9231196641921997,0.05326018997847978,0.008425570041547403,0.02264894776966699,0.9982881069146867,-0.004519697278738022,0.004736526869237423,0.08125918358564377,-0.0010353997349739075,0.005165040493011475,-0.005861043930053711
2025-09-20T01:56:37Z,0.014387496201669762,0.10618491625255078,0.0460706863709099,-0.10445035248994827,-0.3693394660949707,-0.9234058856964111,0.05288661309883098,0.008403934017338337,0.02338190825214693,0.998291241983452,-0.047397349029779434,0.01291524339467287,0.09433934092521667,-0.004337385296821594,0.00028508901596069336,-0.010082364082336426
2025-09-20T01:56:37Z,0.014716528348148489,0.10533570548571872,0.04816940352477487,-0.10470693558454514,-0.36831024289131165,-0.9237878918647766,0.05244986395536354,0.008613611303612736,0.024435581210404882,0.9982872636020186,-0.015722129493951797,0.01616068184375763,0.10989540815353394,-0.00812453031539917,-0.018321454524993896,-0.006708860397338867
2025-09-20T01:56:37Z,0.014667061918792263,0.10556825187050196,0.05039231114471815,-0.10535178333520889,-0.36826252937316895,-0.9237335920333862,0.052556961008206116,0.008650091343555695,0.025544515436200142,0.9982535837233457,0.05083620920777321,-0.00220465287566185,0.1106729805469513,-0.007132440805435181,-0.032204121351242065,-0.0058092474937438965
2025-09-20T01:56:37Z,0.01454707658288117,0.10712298028734928,0.052639006135696866,-0.10607464611530304,-0.36942940950393677,-0.9231847524642944,0.05332479748052913,0.008669367712024024,0.026667290939377607,0.998183275812018,0.10909456014633179,0.020688245072960854,0.1113073080778122,0.0010987073183059692,-0.032335877418518066,-0.022414326667785645
2025-09-20T01:56:37Z,0.014959729972812447,0.10959968930006242,0.05508776864004994,-0.10636468976736069,-0.3714190423488617,-0.92235267162323,0.05454443350166514,0.00897414796879322,0.027907825297832322,0.9980807929728074,0.1362123042345047,0.04900755733251572,0.12928853929042816,0.001462988555431366,-0.01783660054206848,-0.03128623962402344
2025-09-20T01:56:37Z,0.01586051235030076,0.11250235695409115,0.05820191370255129,-0.1063857227563858,-0.3737167418003082,-0.9214216470718384,0.055965574723521476,0.009550096726163717,0.029495575100121366,0.9979511231007282,0.13838228583335876,0.08400051295757294,0.1780799925327301,0.002722732722759247,0.0019718706607818604,-0.0332908034324646
2025-09-20T01:56:37Z,0.017372392905913733,0.1155297533577506,0.06238052411757076,-0.10613033920526505,-0.37599456310272217,-0.920524001121521,0.0574320827611089,0.010467723714865627,0.03163324841645605,0.9977930868179491,0.13816827535629272,0.11952728033065796,0.23733744025230408,0.0037522390484809875,0.009457260370254517,-0.028432905673980713
2025-09-20T01:56:37Z,0.01953018713467012,0.11867402344657448,0.0677164076002757,-0.10559134930372238,-0.37823012471199036,-0.9196697473526001,0.05893541289537861,0.011749554554412095,0.03436930221829918,0.9976006589417501,0.15201736986637115,0.15622282028198242,0.28574106097221375,0.009602651000022888,0.0030378103256225586,-0.021767258644104004
2025-09-20T01:56:37Z,0.022652878665191212,0.12212013277001366,0.0747037463331266,-0.10460799932479858,-0.38052624464035034,-0.9188345670700073,0.060553496736652467,0.013575821661020794,0.037961877073344114,0.9973502931098198,0.16256967186927795,0.18864227831363678,0.3456340730190277,0.006947420537471771,0.0036025047302246094,-0.016508936882019043
2025-09-20T01:56:37Z,0.025752563019052384,0.12558785765023325,0.08168321176013392,-0.10364408791065216,-0.38282644748687744,-0.9179878830909729,0.06217046096055126,0.01540183067414878,0.0415537341056727,0.99708103920961,0.17312198877334595,0.22106173634529114,0.40552711486816406,0.0043116360902786255,0.004171282052993774,-0.011261999607086182
2025-09-20T01:56:37Z,0.02909748956511475,0.12888095991737802,0.0905071150712413,-0.10293962061405182,-0.38471388816833496,-0.9172778725624084,0.0636663949691859,0.017416015790041397,0.0460753341608109,0.9967547773630888,0.15848973393440247,0.22909744083881378,0.48091089725494385,-0.0025132521986961365,0.012712359428405762,-0.007999598979949951
2025-09-20T01:56:37Z,0.03260896126533595,0.13192298707799222,0.10098533678945912,-0.10250870138406754,-0.3861318528652191,-0.9167301654815674,0.064999844943875,0.019573874340826778,0.05142804312371799,0.9963667641975865,0.1365106850862503,0.24799713492393494,0.5603338479995728,-0.002329014241695404,0.01374506950378418,-0.005900740623474121
2025-09-20T01:56:37Z,0.03619293889560075,0.1347096934011692,0.11263841218166798,-0.1023041307926178,-0.38712847232818604,-0.9163326025009155,0.06616995005468562,0.02181370894562857,0.05736858074118903,0.9959188195691943,0.11927533894777298,0.25223222374916077,0.6012492179870605,-0.003237396478652954,0.003121107816696167,-0.002362072467803955
2025-09-20T01:56:37Z,0.039819450094246304,0.1372155434529229,0.12486521728856856,-0.10219009220600128,-0.38775351643562317,-0.9160810112953186,0.06716764014943873,0.024099255553389504,0.06359508610213675,0.9954211215380194,0.09760982543230057,0.25947105884552,0.6212789416313171,-0.00340067595243454,-0.004819363355636597,-0.00504302978515625
2025-09-20T01:56:37Z,0.0432877124843843,0.13930072161950036,0.13765198016793356,-0.10233968496322632,-0.38787710666656494,-0.9160119891166687,0.0679282775775866,0.026323559898725164,0.07009146032315926,0.9948767675000488,0.07826396822929382,0.2686266601085663,0.6465825438499451,-0.00414343923330307,-0.004519939422607422,-0.008108437061309814
2025-09-20T01:56:37Z,0.046872959834455066,0.1410177475621751,0.15094489013008022,-0.10248232632875443,-0.3875504434108734,-0.9161342978477478,0.06846805508900387,0.02862013185870872,0.07683908272546594,0.9942778612621028,0.05725763738155365,0.28279751539230347,0.6584676504135132,-0.0024579986929893494,-0.008618742227554321,-0.01365208625793457
2025-09-20T01:56:37Z,0.050713031369572614,0.14255126579088268,0.16426787701120266,-0.10236972570419312,-0.3870074450969696,-0.9163763523101807,0.06887763196978006,0.031044917130565657,0.08360651349769402,0.9936306133053544,0.04521656036376953,0.2913493812084198,0.6524874567985535,-0.0029494240880012512,-0.015240401029586792,-0.012277483940124512
2025-09-20T01:56:37Z,0.05454003035432429,0.14420648399582553,0.1771407515201771,-0.10213170945644379,-0.38659825921058655,-0.9165756702423096,0.06932612727779267,0.03345915925582387,0.09014859913149137,0.9929488943437095,0.05154323950409889,0.2841200530529022,0.6327760219573975,-0.0062123313546180725,-0.02318441867828369,-0.00820159912109375
2025-09-20T01:56:37Z,0.05831907993206609,0.14613759561097078,0.1896156226372481,-0.10181929171085358,-0.3864595293998718,-0.9166688919067383,0.06989239598534898,0.035855058628771495,0.09649201265667452,0.9922291119823695,0.07031188905239105,0.27854788303375244,0.6042526960372925,-0.005611203610897064,-0.031762123107910156,-0.006193876266479492
2025-09-20T01:56:37Z,0.0619609185042117,0.14843450252428034,0.20141507412329857,-0.10145121067762375,-0.3867199420928955,-0.9165998697280884,0.07063242209082474,0.03818490728900472,0.10249769490655278,0.9914873174274925,0.08258423954248428,0.2588484585285187,0.5704834461212158,-0.007297344505786896,-0.03343600034713745,-0.003342568874359131
2025-09-20T01:56:37Z,0.06520209166031324,0.15084108875511437,0.21232563996554693,-0.10121533274650574,-0.38718634843826294,-0.9164290428161621,0.07144095041741946,0.04029963403092081,0.1080483412046253,0.990756041937712,0.08278100192546844,0.23263728618621826,0.5173841118812561,-0.010356441140174866,-0.034649401903152466,-8.475780487060547e-05
2025-09-20T01:56:37Z,0.06802252071014803,0.1532425831223504,0.22214984966242188,-0.10108402371406555,-0.3877934217453003,-0.9161868095397949,0.07227238716807191,0.04217600089622713,0.11304443158451735,0.9900599326717744,0.07639317214488983,0.2036096304655075,0.4651760756969452,-0.011060960590839386,-0.030692309141159058,0.0034679174423217773
2025-09-20T01:56:37Z,0.07040510650002557,0.15561292835014714,0.23095859495149296,-0.10109435766935349,-0.3885137736797333,-0.9158804416656494,0.07311942943259832,0.04380559375932247,0.11752049130712265,0.9894055646594361,0.06989659368991852,0.17035774886608124,0.41451597213745117,-0.012052290141582489,-0.028629153966903687,0.010620951652526855
2025-09-20T01:56:37Z,0.07168110607396161,0.15798386403012585,0.23829479873222625,-0.1017540767788887,-0.3894580900669098,-0.9154061675071716,0.07405403677550783,0.044841546022201265,0.12122647636909263,0.9888423431473855,0.0742742270231247,0.1301058530807495,0.36935070157051086,-0.012123681604862213,-0.028711050748825073,0.009410262107849121
2025-09-20T01:56:37Z,0.0729399619842084,0.16036404178656663,0.24563073474701252,-0.10242188721895218,-0.39039668440818787,-0.9149317741394043,0.07498748570032363,0.04587679453456023,0.12493052249714905,0.9882633270455538,0.07865185290575027,0.08985394984483719,0.32418543100357056,-0.012186974287033081,-0.028798669576644897,0.008199572563171387
2025-09-20T01:56:37Z,0.07341921130196286,0.1627021051953136,0.2517987008568968,-0.103516586124897,-0.39147958159446716,-0.9143456816673279,0.07597063297770397,0.046487335915418065,0.128026237449879,0.9877633660786217,0.0737200602889061,0.06883332133293152,0.2925276458263397,-0.007669076323509216,-0.022769927978515625,-0.0006303191184997559
2025-09-20T01:56:37Z,0.07372465990079684,0.16486878936045804,0.2576189610955779,-0.10467708110809326,-0.39245617389678955,-0.913794755935669,0.07688549367059434,0.04699438055437222,0.13093987885683697,0.9872865267058092,0.06599342077970505,0.07483787834644318,0.286674827337265,-0.004770614206790924,-0.014568507671356201,-0.00848996639251709
2025-09-20T01:56:38Z,0.07418212768600406,0.16689115338800734,0.263209941876302,-0.10563509166240692,-0.39333245158195496,-0.9133076071739197,0.07772194923902988,0.047563934750499914,0.13374292510111252,0.986817923047801,0.05884234979748726,0.081241674721241,0.26752427220344543,-0.0006836205720901489,-0.017093688249588013,-0.011514902114868164
2025-09-20T01:56:38Z,0.07492060896049588,0.16887166193875736,0.2683609087379895,-0.10622730851173401,-0.39423829317092896,-0.9128482341766357,0.07852649389757517,0.04825702558841235,0.13633818364307876,0.9863653060168842,0.05812053009867668,0.08784408122301102,0.2500559985637665,0.001234002411365509,-0.016879528760910034,-0.01333242654800415
2025-09-20T01:56:38Z,0.07570929768156762,0.1706201590910395,0.273202914076854,-0.10669079422950745,-0.39498117566108704,-0.9124729633331299,0.07921747304010333,0.048951590659597685,0.13877926163106083,0.985935290775948,0.05315481498837471,0.08370043337345123,0.23748832941055298,-0.0006941929459571838,-0.011626720428466797,-0.012825548648834229
2025-09-20T01:56:38Z,0.07662664506593006,0.1720916263378899,0.27790180775780965,-0.10699176788330078,-0.39549311995506287,-0.9122159481048584,0.07976329203093714,0.049688705687429995,0.1411506421038496,0.9855176680492805,0.046744752675294876,0.08432666212320328,0.23172663152217865,0.00016079097986221313,-0.008141756057739258,-0.011745452880859375
2025-09-20T01:56:38Z,0.07750191474437773,0.17336929468210213,0.2823684735107229,-0.10726801306009293,-0.3958655297756195,-0.9120219349861145,0.0802193262346336,0.05038525069062961,0.14340278555804623,0.9851200753361253,0.03929581493139267,0.08008354902267456,0.21472495794296265,-0.0008393600583076477,-0.007823944091796875,-0.008089244365692139
2025-09-20T01:56:38Z,0.07832470011506659,0.17454547098652656,0.28641606633789796,-0.10748910158872604,-0.3962152898311615,-0.91184401512146,0.08063708013174095,0.05103421298321817,0.14544454025323367,0.9847531513612436,0.03362659737467766,0.06898924708366394,0.19308988749980927,-0.0024592578411102295,-0.012124061584472656,-0.00500255823135376
2025-09-20T01:56:38Z,0.07899530993833714,0.17549110307917687,0.2900483680025743,-0.10774360597133636,-0.39642685651779175,-0.9117220044136047,0.08096082301183297,0.05157707829511979,0.14727219365110647,0.98442662733983,0.027264490723609924,0.0534643828868866,0.17192545533180237,-0.00546051561832428,-0.0141981840133667,-0.0023363828659057617
2025-09-20T01:56:38Z,0.0794482633320558,0.1762226007608171,0.2931705228497086,-0.10807058960199356,-0.39653295278549194,-0.9116371870040894,0.08120683432494538,0.051978207845540025,0.14883671792217967,0.9841499437537712,0.019315682351589203,0.03968239575624466,0.13865582644939423,-0.007287025451660156,-0.019197672605514526,-0.0026172399520874023
2025-09-20T01:56:38Z,0.07964863565655617,0.17673838029282704,0.29553529726527117,-0.10844598710536957,-0.3965773284435272,-0.9115732908248901,0.08138430954550475,0.05220966627336854,0.1500151618503037,0.9839440838669852,0.007912975735962391,0.020846445113420486,0.09390610456466675,-0.009166941046714783,-0.02572840452194214,-0.0032723546028137207
2025-09-20T01:56:38Z,0.0795640287582364,0.17703539381078892,0.29687948603794934,-0.1088399812579155,-0.3966054320335388,-0.9115141034126282,0.08150183595390718,0.052244076250692786,0.15067686899240038,0.9838314212171039,5.403999239206314e-05,0.0013645906001329422,0.041356053203344345,-0.009499989449977875,-0.03005024790763855,-0.004754602909088135
2025-09-20T01:56:38Z,0.07948965782483235,0.1771709205039924,0.2970827102038104,-0.10895849764347076,-0.3966912031173706,-0.9114626049995422,0.08156887103967314,0.05222552031968876,0.15077557397313832,0.9838117226693146,-0.0049373675137758255,-0.01065810490399599,-0.016292843967676163,-0.007832415401935577,-0.03361976146697998,-0.00901871919631958
2025-09-20T01:56:38Z,0.07940788915417837,0.1770727852129464,0.2959078116711683,-0.10876121371984482,-0.3968120515346527,-0.9114335775375366,0.08155734956039008,0.05213033955497454,0.15019299425308494,0.9839068214269058,-0.010150106623768806,-0.007663515396416187,-0.055735647678375244,-0.007398203015327454,-0.02989313006401062,-0.008359134197235107
2025-09-20T01:56:38Z,0.07932598946989496,0.17697471086068137,0.2947329066777216,-0.10856378823518753,-0.3969326317310333,-0.9114046096801758,0.08154578480461337,0.05203513036332842,0.1496103523313327,0.9840015585430075,-0.015362845733761787,-0.004668926354497671,-0.09517844021320343,-0.0069641247391700745,-0.02616673707962036,-0.007699370384216309
2025-09-20T01:56:38Z,0.07945638282526539,0.17681818848001035,0.29244296891016824,-0.10791505873203278,-0.397197961807251,-0.9113660454750061,0.08151852042761759,0.05199480894495095,0.14848685250776958,0.9841762054585592,-0.013445981778204441,-0.021795181557536125,-0.13391274213790894,-0.007474169135093689,-0.02667236328125,-0.0031934380531311035
2025-09-20T01:56:38Z,0.07928474152052492,0.17660505238014207,0.28938273101688894,-0.10736168175935745,-0.3975470960140228,-0.9112792015075684,0.08150558160163285,0.05177060674327363,0.1469709586618551,0.9844166237544808,-0.011652914807200432,-0.039841510355472565,-0.16351382434368134,-0.008761376142501831,-0.024115800857543945,-0.0004975795745849609
2025-09-20T01:56:38Z,0.07875136333141562,0.17641143513622987,0.2859338634761041,-0.10704713314771652,-0.3979799449443817,-0.9111272692680359,0.08153805319432103,0.051353979919674185,0.14524887108936993,0.9846913179469746,-0.00847657397389412,-0.06308229267597198,-0.17469939589500427,-0.010259628295898438,-0.016138195991516113,0.002087414264678955
2025-09-20T01:56:38Z,0.07792969988052703,0.1761757958936169,0.2822598821996359,-0.10693952441215515,-0.3984116017818451,-0.9109512567520142,0.08157500903867376,0.05078335491506783,0.14340313597743387,0.9849883658545917,-0.00713519100099802,-0.08112984895706177,-0.18753772974014282,-0.009251423180103302,-0.015438556671142578,-0.0013583898544311523
2025-09-20T01:56:38Z,0.07669567944148632,0.17595341205292664,0.2783603762311943,-0.10715284198522568,-0.3988913297653198,-0.91071617603302,0.0816514886724052,0.05000129583308881,0.1414291117129475,0.985307392299639,-0.010156925767660141,-0.093250572681427,-0.1963675320148468,-0.005579791963100433,-0.015107572078704834,-0.0038545727729797363
2025-09-20T01:56:38Z,0.07540054377684324,0.17569197538157943,0.27424246290076887,-0.10736659914255142,-0.3993702232837677,-0.9104811549186707,0.08171555941160011,0.04917746227264102,0.13934383964286282,0.985640621587936,-0.012051339261233807,-0.09980304539203644,-0.207028329372406,-0.004069946706295013,-0.01519775390625,-0.005003631114959717
2025-09-20T01:56:38Z,0.07398183558077435,0.1752884269152939,0.26996414756345444,-0.10764763504266739,-0.39974480867385864,-0.9102835059165955,0.08171878528614675,0.0482767832222486,0.13717203627100985,0.9859893420035051,-0.015577984973788261,-0.10477116703987122,-0.21161384880542755,-0.002846337854862213,-0.012622833251953125,-0.007388293743133545
2025-09-20T01:56:38Z,0.07253871494233816,0.17479327991297314,0.2656849409455039,-0.10794442892074585,-0.40003299713134766,-0.910121738910675,0.08167492904301432,0.047358286329470624,0.13499702238316838,0.9863376542082936,-0.019626310095191002,-0.10711919516324997,-0.21314281225204468,-0.004125826060771942,-0.009622573852539062,-0.007928848266601562
2025-09-20T01:56:38Z,0.07107759971394759,0.17421018262372961,0.2614163629569815,-0.1082540974020958,-0.40023595094680786,-0.9099957346916199,0.08158498612732965,0.046426128341421,0.13282488981807267,0.9866842302534972,-0.022636573761701584,-0.10072439908981323,-0.2072199136018753,-0.0025086253881454468,-0.00761038064956665,-0.009436428546905518
2025-09-20T01:56:38Z,0.06983760360937105,0.17361931126412994,0.25732424712392354,-0.10840068757534027,-0.4003978371620178,-0.9099070429801941,0.08146906631203432,0.045610333568107675,0.1307482338965694,0.987009164283482,-0.02332957088947296,-0.087632916867733,-0.19863978028297424,-0.0006723925471305847,-0.00820457935333252,-0.012401044368743896
2025-09-20T01:56:38Z,0.06877296212769149,0.17305734675783352,0.25332201874906163,-0.10840682685375214,-0.4005666971206665,-0.9098320007324219,0.08135108435098407,0.04488715184358591,0.1287229432494639,0.9873182191901794,-0.021432993933558464,-0.08745082467794418,-0.1920785903930664,-0.0010427311062812805,-0.00808289647102356,-0.014092564582824707
2025-09-20T01:56:38Z,0.06790099901265213,0.17240039270276533,0.24962017589380653,-0.10830367356538773,-0.40059608221054077,-0.9098313450813293,0.08116469791318175,0.04426617414480698,0.1268522510843646,0.9876037632167742,-0.02758908085525036,-0.056013595312833786,-0.17400547862052917,0.005059786140918732,-0.003373175859451294,-0.019037485122680664
2025-09-20T01:56:38Z,0.06762743987554706,0.1714160863966979,0.2467762889922537,-0.10784927755594254,-0.40018442273139954,-0.9100664854049683,0.08075821392169816,0.04395671453386909,0.1254254450805532,0.987833084919138,-0.036495476961135864,-0.04621922969818115,-0.15346688032150269,0.0030350685119628906,-0.0029803216457366943,-0.015292942523956299
2025-09-20T01:56:38Z,0.06735110242523598,0.1704325402274257,0.24393263093494258,-0.10739623010158539,-0.3997712731361389,-0.9103015661239624,0.08035153191224557,0.04364715726660713,0.12399835082854503,0.9880601120415761,-0.04540187865495682,-0.03642486408352852,-0.1329282820224762,0.0010117217898368835,-0.0025889575481414795,-0.011548399925231934
2025-09-20T01:56:38Z,0.06707197383281044,0.16944982382325333,0.24108915391018101,-0.10694454610347748,-0.3993566930294037,-0.9105367064476013,0.07994468898216274,0.043337500502011975,0.12257095767364298,0.9882847901630932,-0.05430827662348747,-0.026630498468875885,-0.11238967627286911,-0.0010102838277816772,-0.002199023962020874,-0.007803916931152344
2025-09-20T01:56:38Z,0.06685856746996631,0.1680947731389198,0.23881270547836989,-0.10655774176120758,-0.3985108435153961,-0.9109525680541992,0.07933676225201519,0.04306252701316948,0.12142184605283717,0.9884876384619751,-0.062266383320093155,-0.036677390336990356,-0.11800818890333176,-0.004227004945278168,-0.012494266033172607,-0.00600045919418335
2025-09-20T01:56:38Z,0.06654669056834613,0.16662547169222344,0.2362636376509939,-0.10619155317544937,-0.3976048529148102,-0.9113910794258118,0.07868350445779393,0.04272300339317178,0.12013255568765718,0.9887120706624781,-0.06477262824773788,-0.04314947500824928,-0.1466692090034485,-0.004855915904045105,-0.02419903874397278,-0.006945252418518066
2025-09-20T01:56:38Z,0.06620406330929099,0.16499491755661677,0.23262960801639174,-0.10558735579252243,-0.3967285752296448,-0.9118430614471436,0.0779744670041219,0.04231852436409749,0.11830347638726252,0.9890061862754355,-0.07385050505399704,-0.05941039323806763,-0.21749067306518555,-0.0052354708313941956,-0.03828907012939453,-0.003169417381286621
2025-09-20T01:56:38Z,0.06540667577408416,0.1630553604921561,0.22748888655597738,-0.1050242930650711,-0.3958139419555664,-0.912305474281311,0.0771690729849363,0.04161646645491333,0.11570745427324175,0.9894062273849508,-0.08563607931137085,-0.09148524701595306,-0.29674825072288513,-0.015748240053653717,-0.041652292013168335,0.0006463527679443359
2025-09-20T01:56:38Z,0.06445946710972701,0.16098005170696722,0.22093999302017128,-0.10424922406673431,-0.3949958086013794,-0.9127488136291504,0.07633047471170216,0.040783516115075025,0.11240658443416775,0.9898863645632231,-0.09014078229665756,-0.11135048419237137,-0.36131468415260315,-0.015315026044845581,-0.03716641664505005,0.00043660402297973633
2025-09-20T01:56:38Z,0.06317583855375491,0.1588315685890362,0.21309824003575226,-0.10345786809921265,-0.3943057060241699,-0.9131371974945068,0.07549493644275863,0.03973718384705161,0.10845088441543005,0.9904341425899498,-0.0963069349527359,-0.1334654986858368,-0.4203658401966095,-0.010387025773525238,-0.03356808423995972,-0.0007902383804321289
2025-09-20T01:56:38Z,0.061888660506328894,0.15666671295448517,0.2039456223273682,-0.10233850032091141,-0.39379045367240906,-0.913485586643219,0.07466964785459305,0.038646360860131644,0.1038439723260145,0.9910334166197458,-0.10488693416118622,-0.1407472938299179,-0.4965015649795532,-0.0045151486992836,-0.039341866970062256,-0.006175100803375244
2025-09-20T01:56:38Z,0.060302338149370145,0.15423476320794025,0.193153530877347,-0.10106810182332993,-0.39326485991477966,-0.9138534069061279,0.07374881645996896,0.03734237353149496,0.09840812878863246,0.9917067974980217,-0.11953336745500565,-0.16777855157852173,-0.5838382244110107,-0.006524987518787384,-0.03925681114196777,-0.005608022212982178
2025-09-20T01:56:38Z,0.05831229256627901,0.15130773046897622,0.1805276662984797,-0.09968093037605286,-0.3925378620624542,-0.9143182039260864,0.07262175431888969,0.03576043538632965,0.09203967023012401,0.992459452270909,-0.13602150976657867,-0.20816519856452942,-0.6595666408538818,-0.014565795660018921,-0.028251558542251587,-0.00012058019638061523
2025-09-20T01:56:38Z,0.05567715985314572,0.14805339153478483,0.16716397354704526,-0.09866845607757568,-0.39158159494400024,-0.9148378968238831,0.07135493432429506,0.03383391298849182,0.08527527449645841,0.9932228886094125,-0.1506853550672531,-0.22713573276996613,-0.6704285144805908,-0.013498947024345398,-0.0043427348136901855,0.0015190839767456055
2025-09-20T01:56:38Z,0.0527514375023725,0.14460531341207655,0.15390083158183443,-0.0979197770357132,-0.3903876841068268,-0.9154284000396729,0.06997877266869393,0.03177738107138818,0.07854650339848279,0.9939433353209408,-0.15902338922023773,-0.24792465567588806,-0.6550699472427368,-0.012430757284164429,0.0022298991680145264,0.0012724995613098145
2025-09-20T01:56:38Z,0.04948861191641155,0.1410937111248003,0.14083472207836178,-0.09750732779502869,-0.38906097412109375,-0.9160370230674744,0.06855566775634488,0.029577064674428704,0.07190238112908151,0.9946130125171257,-0.16762803494930267,-0.2527434527873993,-0.6759223937988281,-0.0025998279452323914,-0.013689398765563965,-0.005923628807067871
2025-09-20T01:56:38Z,0.04630902534474708,0.13742602409879548,0.12658023813507968,-0.09668957442045212,-0.38770952820777893,-0.9166964888572693,0.06704223711925496,0.02739293407697995,0.06466815174636464,0.9952752770902523,-0.17023949325084686,-0.258976548910141,-0.751248836517334,-0.0016477406024932861,-0.033002644777297974,-0.01182776689529419
2025-09-20T01:56:38Z,0.042751069781065305,0.133300874719058,0.11089160470529089,-0.09581468999385834,-0.38607725501060486,-0.9174769520759583,0.06530170865680048,0.02498369520724172,0.056703062158839274,0.9959398510601768,-0.17435109615325928,-0.26953351497650146,-0.7640267014503479,-0.006412334740161896,-0.015832245349884033,-0.010885179042816162
2025-09-20T01:56:38Z,0.03913021096944128,0.1292316094541204,0.09519674709765019,-0.09497000277042389,-0.38442885875701904,-0.9182565808296204,0.06355646335876812,0.022572638971565778,0.048733847545377906,0.9965319642835371,-0.1784626841545105,-0.2800905108451843,-0.7768045663833618,-0.01114673912525177,0.0013219714164733887,-0.00994330644607544
2025-09-20T01:56:38Z,0.03542580920209711,0.12518884767828253,0.07995660388579055,-0.09429724514484406,-0.3826789855957031,-0.9190564751625061,0.06178725322418412,0.02016289467546644,0.04099018775563517,0.9970433809613672,-0.17174702882766724,-0.27890709042549133,-0.7446208596229553,-0.011021241545677185,0.005518734455108643,-0.00837773084640503
2025-09-20T01:56:38Z,0.031677923176964926,0.12174316817343113,0.06502487411839822,-0.09373153001070023,-0.38137316703796387,-0.9196569323539734,0.06028032928832654,0.01777787687883668,0.033405433909559246,0.9974638740816928,-0.1482524424791336,-0.275576651096344,-0.7385795712471008,-0.005074925720691681,-0.007666140794754028,-0.011082053184509277
2025-09-20T01:56:38Z,0.028060315932169712,0.11887756398026683,0.049970273792376105,-0.09299734979867935,-0.38055169582366943,-0.9200716614723206,0.05902953432792475,0.01548446487562472,0.0257691261591831,0.9978032778192236,-0.11129260808229446,-0.26336973905563354,-0.7717755436897278,-0.0008345969254150987,-0.021326787769794464,-0.015076550655066967
2025-09-20T01:56:38Z,0.02469731635333611,0.11695922555221117,0.03479372060039125,-0.09198188036680222,-0.38055118918418884,-0.9201740026473999,0.058218545530749406,0.013342024059334538,0.018086527966162082,0.9980507802124206,-0.07671518623828888,-0.24724778532981873,-0.747775137424469,-0.0017766058444976807,-0.009469598531723022,-0.01770561933517456
2025-09-20T01:56:38Z,0.021586343293386323,0.11560287350500566,0.01995188344635915,-0.09080532193183899,-0.3809671700000763,-0.9201186895370483,0.05765553378947227,0.011350661992461987,0.01058200766514195,0.9982158324648761,-0.041682835668325424,-0.22738850116729736,-0.7402672171592712,-0.002006053924560547,-0.011755406856536865,-0.017270028591156006
2025-09-20T01:56:38Z,0.018709884630713956,0.11496737129211061,0.005042672841825752,-0.08937574177980423,-0.3819923400878906,-0.9198336005210876,0.05742579200965712,0.009484174510227282,0.003054510177048133,0.9982999982825279,-0.002870354801416397,-0.23254473507404327,-0.7461817860603333,-0.005925506353378296,-0.012024730443954468,-0.01094508171081543
2025-09-20T01:56:38Z,0.015606479660550489,0.11508268844658995,-0.009944417252843011,-0.0881131961941719,-0.3836541175842285,-0.9192636013031006,0.05754587449311825,0.007504210583991746,-0.0045150570832933265,0.9983043542495484,0.032770786434412,-0.24705791473388672,-0.7406492233276367,-0.010107629001140594,-0.00510561466217041,-0.008730411529541016
2025-09-20T01:56:39Z,0.012272052139145147,0.1158179271261088,-0.024627428627276297,-0.08712434023618698,-0.38579338788986206,-0.9184622168540955,0.057946560489811554,0.005412593576462309,-0.011937429330329498,0.9982335309445953,0.06185825169086456,-0.2512785494327545,-0.7088170647621155,-0.009954690933227539,0.007436782121658325,-0.011889219284057617
2025-09-20T01:56:39Z,0.008861697336379728,0.11701794099079806,-0.03845796418175113,-0.08641858398914337,-0.3882189989089966,-0.9175063371658325,0.05854926653845502,0.0032980888811030076,-0.018935661441802712,0.9980993388835414,0.07578662037849426,-0.23905853927135468,-0.6600726842880249,-0.004428677260875702,0.016341596841812134,-0.017934024333953857
2025-09-20T01:56:39Z,0.005780191971381158,0.11852823206880564,-0.05140402274973297,-0.0856359526515007,-0.3907952308654785,-0.9164854288101196,0.05928377218000259,0.001361923463843752,-0.025482838626328497,0.9979147855376183,0.08918751776218414,-0.21876594424247742,-0.6292777061462402,0.0011573582887649536,0.01041993498802185,-0.02022606134414673
2025-09-20T01:56:39Z,0.0027796299392590065,0.1203084297542979,-0.06388607401619088,-0.08488915860652924,-0.39353036880493164,-0.9153838753700256,0.060131532760980454,-0.0005334288906148059,-0.03179630261215553,0.9976836251431948,0.10048689693212509,-0.21927402913570404,-0.6142404675483704,0.0002483949065208435,0.007343649864196777,-0.016271889209747314
2025-09-20T01:56:39Z,-0.0003334648765470823,0.1221818513604925,-0.07600689342628066,-0.08432766050100327,-0.3962755501270294,-0.9142507910728455,0.06100252938815308,-0.002485964993238933,-0.037933595823318254,0.9974133821799953,0.10650106519460678,-0.2291504293680191,-0.5892388224601746,-0.0033356323838233948,0.01297992467880249,-0.014063835144042969
2025-09-20T01:56:39Z,-0.003754624603377654,0.12397282383664038,-0.0869445406196458,-0.08436371386051178,-0.3988075852394104,-0.9131458401679993,0.06180666197216574,-0.0045640475078586994,-0.043491222448402596,0.9971296787100075,0.10598138719797134,-0.22939933836460114,-0.5622686147689819,-0.00019024312496185303,0.009170830249786377,-0.01551806926727295
2025-09-20T01:56:39Z,-0.007156632223214824,0.12580076446744284,-0.09787841777433973,-0.08436699956655502,-0.40133777260780334,-0.9120362997055054,0.06260855449924858,-0.006641975663687524,-0.049047285503511714,0.9968100142996182,0.10546170920133591,-0.22964824736118317,-0.5352984070777893,0.0029223859310150146,0.0053598880767822266,-0.016976892948150635
2025-09-20T01:56:39Z,-0.01049857868406486,0.12776622072220242,-0.10872143523521878,-0.08432500809431076,-0.4039512574672699,-0.9108856320381165,0.0634598605553314,-0.008699434085213528,-0.054556990089264484,0.9964539761328041,0.11400238424539566,-0.23659180104732513,-0.5474241375923157,0.0014567822217941284,-0.0044168829917907715,-0.015439391136169434
2025-09-20T01:56:39Z,-0.01397856401283085,0.1299334277321331,-0.11990001248163434,-0.08429615199565887,-0.40673720836639404,-0.9096477627754211,0.06438494649613931,-0.010851542382809214,-0.06023918453381558,0.9960461463459455,0.12480797618627548,-0.25516337156295776,-0.5656129121780396,-0.0047446563839912415,-0.003674238920211792,-0.011118829250335693
2025-09-20T01:56:39Z,-0.01787009613916526,0.1321964555058957,-0.13127821971906703,-0.08456675708293915,-0.4095861613750458,-0.9083433747291565,0.0653204620917883,-0.01322840443780278,-0.06603502477153281,0.9955890508911033,0.12879721820354462,-0.2696802616119385,-0.5765068531036377,-0.00775495171546936,-0.001131981611251831,-0.00969165563583374
2025-09-20T01:56:39Z,-0.021940437583246316,0.13455475502989397,-0.14300142873258412,-0.08488193154335022,-0.4125046133995056,-0.9069923162460327,0.06626891125879854,-0.015719585140925516,-0.07200949503826454,0.9950758399822658,0.12884080410003662,-0.29729145765304565,-0.5931383371353149,-0.011454381048679352,-0.0022347867488861084,-0.0063904523849487305
2025-09-20T01:56:39Z,-0.02641939069204526,0.13708162346816238,-0.15511307959358567,-0.08543496578931808,-0.415557861328125,-0.9055454730987549,0.06725429161008584,-0.01844452312723959,-0.07819209873748378,0.9944961595277636,0.12284087389707565,-0.31873324513435364,-0.6099330186843872,-0.010434582829475403,-0.0023297369480133057,-0.0068590641021728516
2025-09-20T01:56:39Z,-0.031189344900039134,0.13958939933994682,-0.1676391853778554,-0.08611144870519638,-0.4185725748538971,-0.9040917158126831,0.06818238895156009,-0.021339324842579773,-0.08459117596385764,0.9938510843459787,0.11043204367160797,-0.3296670615673065,-0.6359090805053711,-0.00790424644947052,-0.006147563457489014,-0.008750557899475098
2025-09-20T01:56:39Z,-0.03610626525270832,0.14185093815605376,-0.1806101295863564,-0.08677466958761215,-0.42134034633636475,-0.9027416110038757,0.06894187279560361,-0.02432322171357323,-0.09121506493762171,0.9931440000352606,0.09098326414823532,-0.33269014954566956,-0.6556407809257507,-0.00746743381023407,-0.007254421710968018,-0.008419275283813477
2025-09-20T01:56:39Z,-0.041068765824632404,0.1437972343081944,-0.19395753633697269,-0.0873551070690155,-0.4237910211086273,-0.9015377163887024,0.06950107692474876,-0.027337918907728746,-0.0980244072053152,0.9923775374478194,0.06944911926984787,-0.3519180417060852,-0.6767151355743408,-0.011157818138599396,-0.007150977849960327,-0.0038704872131347656
2025-09-20T01:56:39Z,-0.04633852660671842,0.14536390070625604,-0.2076823861219668,-0.08809144794940948,-0.4258629381656647,-0.900489091873169,0.06981238071746118,-0.0305067378358328,-0.10502656405877268,0.9915466633538845,0.04214850440621376,-0.3668186068534851,-0.687030553817749,-0.012095265090465546,-0.0034603774547576904,-0.004315376281738281
2025-09-20T01:56:39Z,-0.051789214207207626,0.1464629544413798,-0.22163421853612011,-0.0889177918434143,-0.42746666073799133,-0.8996476531028748,0.06983716879955591,-0.03375268010493169,-0.11213983336233933,0.9906604116653882,0.011139396578073502,-0.38505643606185913,-0.6954684853553772,-0.010169640183448792,-0.002049356698989868,-0.003801703453063965
2025-09-20T01:56:39Z,-0.057591935883030014,0.1470891496290484,-0.23578932169138866,-0.08999865502119064,-0.4285944700241089,-0.8990033268928528,0.06956058688070622,-0.037153904116665366,-0.11935606930764206,0.9897145570931002,-0.019081341102719307,-0.3993717133998871,-0.7050908803939819,-0.0073311105370521545,-0.0024158358573913574,-0.008587837219238281
2025-09-20T01:56:39Z,-0.06355164525364636,0.14718340690943657,-0.25015680303978693,-0.0911615863442421,-0.4291912913322449,-0.8986013531684875,0.06896136481780699,-0.04060479941266206,-0.126669745938525,0.9887114235504217,-0.05225299298763275,-0.39670732617378235,-0.7175584435462952,-0.0032061785459518433,-0.00334814190864563,-0.016802489757537842
2025-09-20T01:56:39Z,-0.06937035896922152,0.14683867948038887,-0.2647431547650562,-0.09213914722204208,-0.42933863401412964,-0.8984312415122986,0.06810326000089158,-0.0439579965957202,-0.13407212256254503,0.9876508468782574,-0.07744669169187546,-0.39007237553596497,-0.718822181224823,-0.0030734241008758545,0.0014295578002929688,-0.01900273561477661
2025-09-20T01:56:39Z,-0.07456322366952801,0.14603777529180925,-0.2789633131984058,-0.09267185628414154,-0.4290032982826233,-0.8985366225242615,0.06702705759897863,-0.04694837156397637,-0.14125581319582822,0.9865849735130681,-0.08134875446557999,-0.35974663496017456,-0.6971938014030457,-0.0015148818492889404,0.0011348426342010498,-0.020991504192352295
2025-09-20T01:56:39Z,-0.07976650034304748,0.14531001132714072,-0.29318591013999235,-0.09320995956659317,-0.4286752939224243,-0.8986375331878662,0.06594664126639675,-0.049935799385848405,-0.1484306331133461,0.9854571337497473,-0.08525082468986511,-0.32942089438438416,-0.6755653619766235,4.903972148895264e-05,0.0008474290370941162,-0.022984802722930908
2025-09-20T01:56:39Z,-0.084081899707534,0.14467682551234326,-0.3069901134571492,-0.09306923300027847,-0.4283667206764221,-0.8987992405891418,0.06495340213346629,-0.05246643603682159,-0.15536034458210846,0.9843228202297156,-0.07940876483917236,-0.29589471220970154,-0.6594560146331787,0.00115126371383667,-0.0022962987422943115,-0.023134171962738037
2025-09-20T01:56:39Z,-0.0879152166032994,0.1441957427241643,-0.32028330994251575,-0.09263969212770462,-0.4281333386898041,-0.8989548087120056,0.06405608688792605,-0.05474402131370133,-0.16201515182799256,0.9831840345773054,-0.07141350954771042,-0.2728981375694275,-0.6334104537963867,-0.0016872212290763855,0.0020354092121124268,-0.021506786346435547
2025-09-20T01:56:39Z,-0.091367523265608,0.14374036524367212,-0.33287867637092217,-0.09207190573215485,-0.4278651773929596,-0.8991407752037048,0.0631957672425773,-0.05680473979961847,-0.16830588596339408,0.9820654189043727,-0.07160770148038864,-0.2513975203037262,-0.5917792916297913,-0.0019897520542144775,0.010644286870956421,-0.02255702018737793
2025-09-20T01:56:39Z,-0.09426982763721653,0.14324085321707078,-0.3445622329124098,-0.09127978980541229,-0.42750537395477295,-0.8993926644325256,0.06236492872049676,-0.05855473386073436,-0.174122537223405,0.9810010671242695,-0.07428207993507385,-0.20468279719352722,-0.5516244173049927,0.0011732801795005798,0.01017153263092041,-0.02741265296936035
2025-09-20T01:56:39Z,-0.0963839701709282,0.14274662524253212,-0.3547701111906671,-0.09021242707967758,-0.42710620164871216,-0.8996899724006653,0.06163338800522217,-0.05986566990891612,-0.17918414264381574,0.9800562938343395,-0.06515760719776154,-0.18859781324863434,-0.5143319368362427,-0.000509902834892273,0.01071593165397644,-0.024653077125549316
2025-09-20T01:56:39Z,-0.0985029441110388,0.1422738163768104,-0.36497834290325276,-0.08915015310049057,-0.42669594287872314,-0.899990439414978,0.060900090500131177,-0.06117488374883164,-0.18424060834018943,0.9790833210904686,-0.05603313818573952,-0.17251282930374146,-0.4770394563674927,-0.002187982201576233,0.011249274015426636,-0.02189028263092041
2025-09-20T01:56:39Z,-0.10062649816293932,0.1418223235081769,-0.37518676958632435,-0.088093101978302,-0.42627444863319397,-0.9002942442893982,0.06016499520604274,-0.06248231233693353,-0.1892917359404355,0.9780820616134851,-0.0469086691737175,-0.15642784535884857,-0.4397469758987427,-0.00386086106300354,0.01177138090133667,-0.019124269485473633
2025-09-20T01:56:39Z,-0.10256383543110774,0.14154839270695324,-0.3840512168617836,-0.08725610375404358,-0.4259907007217407,-0.9005100131034851,0.05956585310241906,-0.06366939518553129,-0.19367783226142893,0.9771830926161998,-0.03373384103178978,-0.14449343085289001,-0.39182591438293457,-0.005153462290763855,0.013521134853363037,-0.0171777606010437
2025-09-20T01:56:39Z,-0.10441027521999954,0.14159084746064818,-0.39170641066001727,-0.08667861670255661,-0.4259796738624573,-0.9005709886550903,0.059160187639963266,-0.06480239471456087,-0.1974721376610814,0.976373552841932,-0.01636979542672634,-0.13562940061092377,-0.35036975145339966,-0.0034619569778442383,0.010993391275405884,-0.014838039875030518
2025-09-20T01:56:39Z,-0.10639007656206789,0.14190897304964475,-0.3984112196636608,-0.08648766577243805,-0.42621010541915894,-0.900480329990387,0.05889929141741941,-0.06599694891034227,-0.2008085203457284,0.9756285076148395,-0.0005596484988927841,-0.14180701971054077,-0.311018168926239,-0.004997588694095612,0.011410951614379883,-0.01060628890991211
2025-09-20T01:56:39Z,-0.10859483780886729,0.14239062987084133,-0.4043150446414948,-0.08672621846199036,-0.4265844225883484,-0.9002801179885864,0.05871481035122028,-0.06729259840773207,-0.20376155398542536,0.9749385550691642,0.01241969969123602,-0.1522442102432251,-0.27861487865448,-0.0043587759137153625,0.010398268699645996,-0.010117709636688232
2025-09-20T01:56:39Z,-0.11099047895370005,0.14300493969845124,-0.4096706204156721,-0.08729042857885361,-0.42707559466362,-0.8999927043914795,0.05858691761903807,-0.0686777028056229,-0.2064536384180713,0.974283175363746,0.01877136528491974,-0.15706384181976318,-0.25330084562301636,-0.0018845945596694946,0.009367018938064575,-0.011906325817108154
2025-09-20T01:56:39Z,-0.11338967934751283,0.1436578822813872,-0.4144274748571388,-0.08803018182516098,-0.4276016652584076,-0.8996707797050476,0.058491351644243114,-0.07005055014281637,-0.208853501515556,0.973679509892215,0.02261187694966793,-0.14409798383712769,-0.22551676630973816,0.0023786574602127075,0.008273512125015259,-0.01602119207382202
2025-09-20T01:56:39Z,-0.11555329393009721,0.14452368998989767,-0.4186404595820902,-0.08870546519756317,-0.4283217489719391,-0.8992618322372437,0.05853749421668308,-0.07131423122456956,-0.21098500015030947,0.973125320130279,0.02907368540763855,-0.14152836799621582,-0.21386729180812836,0.002463303506374359,0.006525129079818726,-0.015176177024841309
2025-09-20T01:56:39Z,-0.11771345349942662,0.14539848427396818,-0.42285202721012527,-0.0893765464425087,-0.4290445148944855,-0.8988507390022278,0.05858325100733137,-0.07257743512374401,-0.21311510980323645,0.9725648773323947,0.03553549200296402,-0.13895875215530396,-0.20221781730651855,0.0025437697768211365,0.004779398441314697,-0.01433330774307251
2025-09-20T01:56:39Z,-0.11992656692961765,0.14638629594876473,-0.4266177235549482,-0.09021817147731781,-0.4298717677593231,-0.8983712792396545,0.058689629072348724,-0.07386530154317789,-0.2150317111060675,0.9720394888742353,0.03998274728655815,-0.1348162442445755,-0.17469261586666107,0.002253815531730652,0.00931498408317566,-0.015489935874938965
2025-09-20T01:56:39Z,-0.1219931212179426,0.1473396478123004,-0.42983322080181113,-0.0910886824131012,-0.4306737184524536,-0.8978992104530334,0.0588110090388688,-0.07506266657870747,-0.21667550190535792,0.9715752833631548,0.04073108732700348,-0.12903377413749695,-0.14827361702919006,0.0026684552431106567,0.010742783546447754,-0.018188297748565674
2025-09-20T01:56:39Z,-0.12398269503734796,0.14833118914739513,-0.43246746124340557,-0.09205573797225952,-0.4315180480480194,-0.8973950743675232,0.058977706180815305,-0.07620991135088091,-0.21803537190927064,0.9711715488413706,0.04109150171279907,-0.11392639577388763,-0.11871962249279022,0.004650019109249115,0.013107985258102417,-0.020799338817596436
2025-09-20T01:56:39Z,-0.1257421143724708,0.14921632377114225,-0.43436232390527846,-0.09303554147481918,-0.4322788417339325,-0.8969277739524841,0.059143406582801636,-0.0772127894529073,-0.2190271397745196,0.9708590023320365,0.03906203433871269,-0.09116467833518982,-0.07516278326511383,0.007510960102081299,0.017733722925186157,-0.022906243801116943
2025-09-20T01:56:39Z,-0.1270862904710977,0.1498780474820491,-0.435317454540807,-0.09392715990543365,-0.43285614252090454,-0.8965563178062439,0.05928083564217898,-0.0779630080704624,-0.21954556040708595,0.9706735945741798,0.03679196536540985,-0.06426780670881271,-0.024016231298446655,0.0092783123254776,0.020167142152786255,-0.02335888147354126
2025-09-20T01:56:39Z,-0.1280834231885083,0.1503064660445025,-0.43522619898571835,-0.09482390433549881,-0.433243989944458,-0.8962745666503906,0.05938331466566615,-0.0784892718147019,-0.21954070562635097,0.9706259293939499,0.03323908895254135,-0.03863275796175003,0.036463748663663864,0.009195975959300995,0.023643195629119873,-0.02303135395050049
2025-09-20T01:56:39Z,-0.12860194129334257,0.1504300521060123,-0.43371330164091765,-0.09572146832942963,-0.43338558077812195,-0.8961106538772583,0.05944605604850306,-0.07870895100498822,-0.21882468555776208,0.9707659892807105,0.028894707560539246,-0.003085590898990631,0.11462472379207611,0.01154337078332901,0.028818637132644653,-0.025194168090820312
2025-09-20T01:56:39Z,-0.12847761915050793,0.15017900249289198,-0.43064483280725,-0.09651601314544678,-0.43321865797042847,-0.8961061239242554,0.059458097057997865,-0.07853119299312601,-0.21732550565126185,0.97111634770671,0.02167278714478016,0.04455970972776413,0.1948927342891693,0.013682782649993896,0.030434757471084595,-0.02822047472000122
2025-09-20T01:56:39Z,-0.12757646078598248,0.14956106836691455,-0.4259284348270953,-0.09711417555809021,-0.43274760246276855,-0.8962691426277161,0.05943916869114559,-0.07788941068384717,-0.21499360116410465,0.9716880967614194,0.014734343625605106,0.1020740419626236,0.2767086923122406,0.015842996537685394,0.029676616191864014,-0.03240329027175903
2025-09-20T01:56:39Z,-0.12580197227087972,0.14857808985244367,-0.41948866396788365,-0.0974511206150055,-0.4319681227207184,-0.8966084718704224,0.05939869289252435,-0.07673525981510093,-0.2117881994426368,0.9724859891947085,0.009420324116945267,0.1602383404970169,0.3705771565437317,0.015316106379032135,0.03249272704124451,-0.03318476676940918
2025-09-20T01:56:39Z,-0.12306171653394116,0.14726819711928452,-0.41108530468828164,-0.09751108288764954,-0.4309077858924866,-0.8971120715141296,0.05936630023481151,-0.07502115790357698,-0.20758878890669608,0.9735266259196731,0.010504353791475296,0.2199321985244751,0.4741232097148895,0.013485871255397797,0.03207981586456299,-0.03288978338241577
2025-09-20T01:56:39Z,-0.11936837185158673,0.14578642910247655,-0.4005867069301706,-0.09733452647924423,-0.42969295382499695,-0.8977137207984924,0.05940961350747937,-0.0727650163233243,-0.20233249073346912,0.9748010496070239,0.014951536431908607,0.282772034406662,0.5783781409263611,0.01171797513961792,0.03021526336669922,-0.034245431423187256
2025-09-20T01:56:39Z,-0.11459477398358348,0.1441545107084585,-0.38797779355470385,-0.09680942445993423,-0.42832380533218384,-0.898424506187439,0.05953735825755789,-0.06990586516797373,-0.1960051114340305,0.9762941381302603,0.014051713980734348,0.35743725299835205,0.677862823009491,0.013742528855800629,0.029193073511123657,-0.03870534896850586
2025-09-20T01:56:40Z,-0.1085681564259021,0.1423018770877684,-0.37346560111450994,-0.09572113305330276,-0.4267125725746155,-0.8993074297904968,0.05970480632107436,-0.0663578772901083,-0.18869716182744356,0.9779699443609295,0.007347276899963617,0.42620038986206055,0.7692141532897949,0.011554837226867676,0.028979331254959106,-0.03776955604553223
2025-09-20T01:56:40Z,-0.10173518878264365,0.14022718933470332,-0.35707830618479736,-0.09445904195308685,-0.4248333275318146,-0.9003300070762634,0.05984578657346517,-0.0623398249990673,-0.1804320995556868,0.9797838181092605,-6.044609472155571e-05,0.4658556282520294,0.8735358119010925,0.0008574202656745911,0.035125732421875,-0.02999049425125122
2025-09-20T01:56:40Z,-0.0945952294259779,0.13794749015061905,-0.33832425679265155,-0.09361172467470169,-0.4226702153682709,-0.901435911655426,0.059918392941624814,-0.05808430144802213,-0.17098034695923547,0.9817339905830758,-0.006508094258606434,0.5002785325050354,0.9985249638557434,-0.004544772207736969,0.04096528887748718,-0.02498030662536621
2025-09-20T01:56:40Z,-0.08694427981956226,0.135566948088957,-0.31720386355079333,-0.0929865762591362,-0.42027825117111206,-0.9026182293891907,0.05997032902813817,-0.053501736498146206,-0.16033285521825053,0.9837857197974094,-0.010427439585328102,0.5425153374671936,1.0982084274291992,-0.003193475306034088,0.03212398290634155,-0.024487972259521484
2025-09-20T01:56:40Z,-0.07868459365682301,0.13323181132100273,-0.29440689862507713,-0.09228206425905228,-0.4177607297897339,-0.9038584232330322,0.06003964182528255,-0.04857641981270821,-0.1488237406077913,0.985843256257295,-0.012905441224575043,0.5788087844848633,1.1657098531723022,-0.004280269145965576,0.019376486539840698,-0.021376729011535645
2025-09-20T01:56:40Z,-0.06998384043246415,0.1310745580974514,-0.2704951870102239,-0.0914744958281517,-0.4152204990386963,-0.9051101207733154,0.06014552639024953,-0.043415915814827136,-0.13673407633505427,0.9878264874485448,-0.014592907391488552,0.5975483059883118,1.2104352712631226,-0.014709576964378357,0.008622616529464722,-0.015985488891601562
2025-09-20T01:56:40Z,-0.061275418536822286,0.1291341176851722,-0.24569508116739242,-0.09088335186243057,-0.41267848014831543,-0.906331479549408,0.06026000139563984,-0.038241473763553864,-0.12418767126866914,0.9896886517985873,-0.013017265126109123,0.5888887047767639,1.2549176216125488,-0.02710491418838501,0.007877618074417114,-0.0067182183265686035
2025-09-20T01:56:40Z,-0.053037171845277085,0.12745180802652853,-0.21991945999547505,-0.09096147119998932,-0.41015028953552246,-0.9074705243110657,0.060372061109811775,-0.03328782589496713,-0.11115540877274692,0.9914088440120769,-0.00832519680261612,0.5625653862953186,1.3060684204101562,-0.0330439954996109,0.008274286985397339,-0.0010406970977783203
2025-09-20T01:56:40Z,-0.045247689517003385,0.12602964838093014,-0.19338589363161746,-0.09162158519029617,-0.4076281189918518,-0.9085399508476257,0.06048329613933579,-0.0285495736970345,-0.09774399293717391,0.992961617877621,-0.005616038106381893,0.5464754104614258,1.3212640285491943,-0.028833657503128052,-0.00414469838142395,-0.0033431053161621094
2025-09-20T01:56:40Z,-0.03788912863739507,0.12485735524253684,-0.16678405580591021,-0.09264319390058517,-0.4051262140274048,-0.9095548391342163,0.06058535207749821,-0.024036542580263862,-0.08429597374873027,0.9943066159199067,-0.005281118676066399,0.5239260196685791,1.3155977725982666,-0.02758815884590149,-0.012487411499023438,-0.001834571361541748
2025-09-20T01:56:40Z,-0.03081014859352639,0.12391636489706338,-0.14039280813328342,-0.09380526095628738,-0.4026458263397217,-0.9105365872383118,0.06068036015798973,-0.019679421424785265,-0.07094736303479489,0.9954380111373078,-0.0026496336795389652,0.5022726655006409,1.3064329624176025,-0.028514660894870758,-0.014596551656723022,0.0008085370063781738
2025-09-20T01:56:40Z,-0.024292626370565316,0.12328693321505899,-0.11417675617342575,-0.0953713059425354,-0.4002639055252075,-0.9114236831665039,0.06080783667388705,-0.015617924383295533,-0.05769183268224759,0.996358394583166,0.008316157385706902,0.4750823378562927,1.287445306777954,-0.029567189514636993,-0.019540727138519287,0.005728363990783691
2025-09-20T01:56:40Z,-0.01833318337630979,0.12307619376674254,-0.08854312056937196,-0.09722078591585159,-0.39811643958091736,-0.912168562412262,0.061031512557746026,-0.011861812982660008,-0.04473465051227113,0.997062292711427,0.02557493932545185,0.43750303983688354,1.2478699684143066,-0.028769269585609436,-0.029738008975982666,0.008985817432403564
2025-09-20T01:56:40Z,-0.01303357025109232,0.12344751526000862,-0.06390412460420794,-0.09933188557624817,-0.3964027762413025,-0.9126872420310974,0.06144398906406939,-0.00847158178244017,-0.03228689096178973,0.9975521756744392,0.04770255833864212,0.3944127559661865,1.1956794261932373,-0.028705894947052002,-0.034192413091659546,0.00954902172088623
2025-09-20T01:56:40Z,-0.008435099840658317,0.12442292711203042,-0.04008978029590615,-0.10179553925991058,-0.39514920115470886,-0.9129593372344971,0.06207393595243552,-0.005454657038158119,-0.02026675521269985,0.9978507402976907,0.07310084253549576,0.3571799099445343,1.164868950843811,-0.028766214847564697,-0.027935415506362915,0.008707582950592041
2025-09-20T01:56:40Z,-0.004390677139089487,0.1259776866983448,-0.01687504014561165,-0.10454461723566055,-0.39432811737060547,-0.91300368309021,0.06292633084434489,-0.0027220164408936994,-0.008558853884374268,0.9979776012546691,0.09219095855951309,0.33414456248283386,1.137365698814392,-0.023394398391246796,-0.024115175008773804,0.004381299018859863
2025-09-20T01:56:40Z,-0.000679992982339499,0.12788725946687035,0.005712802450644803,-0.10737357288599014,-0.3937496542930603,-0.9129250049591064,0.06390077691435275,-0.00015677626144740414,0.0028288342393596915,0.9979520985419216,0.10275420546531677,0.3276335299015045,1.0976396799087524,-0.01738082617521286,-0.026819705963134766,-0.004154384136199951
2025-09-20T01:56:40Z,0.003109822252424866,0.13001155444309986,0.02723615669752316,-0.10978880524635315,-0.3933471739292145,-0.912811279296875,0.06493277981937005,0.002436084939354745,0.013689877932591361,0.9977926442243671,0.1044880747795105,0.32638439536094666,1.0339229106903076,-0.013359405100345612,-0.032821208238601685,-0.009208261966705322
2025-09-20T01:56:40Z,0.00686056769817732,0.13217936384287435,0.047408870541959136,-0.11182621121406555,-0.3930175006389618,-0.9127059578895569,0.06594151600064581,0.0049871499569783635,0.02387681034508015,0.9975252367776856,0.1016550064086914,0.31311559677124023,0.9655986428260803,-0.015155188739299774,-0.03295549750328064,-0.00602412223815918
2025-09-20T01:56:40Z,0.010407102067166354,0.13436519246406234,0.06642619271712855,-0.11369573324918747,-0.3927363157272339,-0.9125959873199463,0.06692173745881842,0.007418150062239627,0.03348076291572879,0.9971686832970441,0.10067485272884369,0.30056917667388916,0.9159924983978271,-0.014146380126476288,-0.029071062803268433,-0.0027804970741271973
2025-09-20T01:56:40Z,0.013861589496829323,0.13664375321786884,0.08435690141024971,-0.1153196319937706,-0.3925812244415283,-0.9124589562416077,0.06791482525746173,0.009786967475135095,0.0425392952432981,0.9967357185125778,0.10340813547372818,0.284156858921051,0.8592326045036316,-0.013419181108474731,-0.032897889614105225,-0.0013589859008789062
2025-09-20T01:56:40Z,0.017038004315349704,0.1390568677495911,0.101020476717023,-0.11682663857936859,-0.3926299512386322,-0.9122462868690491,0.06895223967693233,0.011994928042978916,0.050956023560800166,0.9962455248145305,0.10676605254411697,0.26261836290359497,0.7932565212249756,-0.012628965079784393,-0.035807639360427856,-0.0010159611701965332
2025-09-20T01:56:40Z,0.019897127333818994,0.14156505673081343,0.11653420519100838,-0.11829010397195816,-0.39284747838974,-0.9119639992713928,0.07002204495692477,0.01402496496401514,0.0587878410425878,0.9957127972107195,0.10572238266468048,0.24718919396400452,0.7390350699424744,-0.011880308389663696,-0.03122374415397644,-0.0010482072830200195
2025-09-20T01:56:40Z,0.02252984461298314,0.14403409772880776,0.13097120189505423,-0.11965124309062958,-0.39311590790748596,-0.9116706848144531,0.07106079987061671,0.015919743909632786,0.06607386017861393,0.9951537193863765,0.09844622761011124,0.22547316551208496,0.691756010055542,-0.013482660055160522,-0.026970088481903076,-0.0012115240097045898
2025-09-20T01:56:40Z,0.02481553690324774,0.14645173715168464,0.14459973226990985,-0.12109401077032089,-0.39339837431907654,-0.9113582968711853,0.0720698335075894,0.017626353204526973,0.07294314001316879,0.9945724122906482,0.09265594184398651,0.2093118578195572,0.6571318507194519,-0.01281292736530304,-0.022964417934417725,-0.0008233189582824707
2025-09-20T01:56:40Z,0.02683650689863999,0.14885130881659403,0.15748863323508952,-0.1225649043917656,-0.39372390508651733,-0.9110210537910461,0.07306732164230084,0.01918785939793481,0.07943276800435936,0.9939734253265937,0.08747589588165283,0.18659234046936035,0.6196854114532471,-0.013138838112354279,-0.023444920778274536,-0.00170135498046875
2025-09-20T01:56:40Z,0.028600294034436955,0.1512156301543392,0.16971439326795337,-0.12407954037189484,-0.39407315850257874,-0.9106649160385132,0.07404780642060244,0.02060891561151807,0.08558087236038141,0.9933619296604239,0.08763150125741959,0.17861691117286682,0.592714250087738,-0.010907426476478577,-0.023362785577774048,-0.005855083465576172
2025-09-20T01:56:40Z,0.030235848097172197,0.1536014667635483,0.1813476362884555,-0.12554176151752472,-0.3944932818412781,-0.910282552242279,0.07503650118584881,0.021957517116014322,0.09142750932390008,0.9927377825857011,0.09111858904361725,0.1678750365972519,0.562242329120636,-0.01038949191570282,-0.024891912937164307,-0.006999194622039795
2025-09-20T01:56:40Z,0.03169757927744097,0.15607093682296327,0.1923711801754425,-0.12699221074581146,-0.3950483798980713,-0.9098405241966248,0.076068840106171,0.023212644721453003,0.09696281945829552,0.9921051860380047,0.09565488249063492,0.16076086461544037,0.5302098989486694,-0.009190768003463745,-0.024070322513580322,-0.007990002632141113
2025-09-20T01:56:40Z,0.03325328790627202,0.158823205634855,0.20264220590033677,-0.12815754115581512,-0.3959459662437439,-0.9092867374420166,0.07723405131189451,0.024511251340096546,0.10212728226551368,0.991465522607717,0.10264647006988525,0.16315323114395142,0.5202824473381042,-0.008793339133262634,-0.02165856957435608,-0.008487284183502197
2025-09-20T01:56:40Z,0.03478095961476764,0.1615911378943308,0.2129134499867836,-0.1293337345123291,-0.396830290555954,-0.9087345600128174,0.07839695141545948,0.025809117501584815,0.10728866380286356,0.9907959732593549,0.10963805764913559,0.16554559767246246,0.5103549957275391,-0.00838509202003479,-0.01926019787788391,-0.008983075618743896
2025-09-20T01:56:40Z,0.0362804281813241,0.16437436792529436,0.22318509981364054,-0.13052065670490265,-0.3977011442184448,-0.9081839919090271,0.07955746489907504,0.027106202234478176,0.11244681765798092,0.9900966035232159,0.11662964522838593,0.1679379642009735,0.5004276037216187,-0.007966086268424988,-0.016875237226486206,-0.009477198123931885
2025-09-20T01:56:40Z,0.037920398346441814,0.16736611080904376,0.23317366462607247,-0.131499245762825,-0.39877936244010925,-0.9075698256492615,0.08080542785698437,0.028485620258089234,0.11746895931892798,0.9893734620925334,0.12513552606105804,0.16913875937461853,0.4937341511249542,-0.00766327977180481,-0.01634770631790161,-0.008416414260864258
2025-09-20T01:56:40Z,0.03952010003400557,0.17046161168517016,0.24311204462882097,-0.13248956203460693,-0.3999335765838623,-0.9069176316261292,0.08209583249213395,0.029862078621869806,0.12246277155207311,0.988620845410777,0.13114188611507416,0.1683260053396225,0.49406787753105164,-0.009371325373649597,-0.014328569173812866,-0.0068402886390686035
2025-09-20T01:56:40Z,0.041272373456186895,0.17365907440662798,0.2531567028575181,-0.13335418701171875,-0.4011361300945282,-0.9062595963478088,0.08341324243732692,0.03133784157488553,0.12751339775772738,0.9878260472199036,0.13756097853183746,0.18386361002922058,0.5014877319335938,-0.007524013519287109,-0.012773364782333374,-0.01034557819366455
2025-09-20T01:56:40Z,0.04325643757751017,0.1770142985412411,0.2632644580348029,-0.13401180505752563,-0.40244370698928833,-0.90558260679245,0.0847790552411288,0.03295443437647946,0.132603185573236,0.9869866433402209,0.14374320209026337,0.19902333617210388,0.5016963481903076,-0.0058187395334243774,-0.015798330307006836,-0.01286536455154419
2025-09-20T01:56:40Z,0.04552076833082087,0.180434579044632,0.27322094228797994,-0.13436682522296906,-0.40380942821502686,-0.90492182970047,0.08614568955790682,0.03472119147194863,0.13762831548572707,0.9861194276974693,0.14521871507167816,0.21223674714565277,0.4857040345668793,-0.0031854212284088135,-0.01927444338798523,-0.01546776294708252
2025-09-20T01:56:40Z,0.04809417347817722,0.18378419386086242,0.2828244634062993,-0.1343449354171753,-0.405147910118103,-0.9043266177177429,0.08744597901143093,0.03663376309751389,0.14249056635451846,0.9852448825329551,0.13779188692569733,0.22929470241069794,0.4682803452014923,-0.002222120761871338,-0.01739978790283203,-0.018231332302093506
2025-09-20T01:56:40Z,0.05106235901062872,0.1868891365385482,0.2920876864192286,-0.1338699609041214,-0.4063035845756531,-0.9038784503936768,0.08858642078416172,0.0387207943799031,0.14719979593308305,0.9843705015181725,0.1214531734585762,0.23976494371891022,0.45103394985198975,-0.0037286728620529175,-0.014133840799331665,-0.01576673984527588
2025-09-20T01:56:40Z,0.05407759478768664,0.1896298717346839,0.3010042677848359,-0.13325323164463043,-0.40717360377311707,-0.9035780429840088,0.0895331862976015,0.04079939755018545,0.15173721512122923,0.9835115217121821,0.10267654806375504,0.23135554790496826,0.4289749562740326,-0.007857933640480042,-0.012605339288711548,-0.009100079536437988
2025-09-20T01:56:40Z,0.05697393067476778,0.19210493275982002,0.3095250047565995,-0.13263605535030365,-0.4078580439090729,-0.90336012840271,0.09034985364931306,0.04279026440496351,0.15607169046576902,0.9826735903159076,0.09053897112607956,0.22220566868782043,0.4149269163608551,-0.009407535195350647,-0.012852489948272705,-0.00541079044342041
2025-09-20T01:56:40Z,0.05969199730076389,0.19443003059845534,0.31775717279085247,-0.13209988176822662,-0.4084436893463135,-0.9031740427017212,0.09109784726597324,0.04467603318878853,0.16025388129536733,0.981847136324452,0.08420045673847198,0.21008627116680145,0.40093547105789185,-0.010691836476325989,-0.014960527420043945,-0.0028299689292907715
2025-09-20T01:56:40Z,0.06219921035680373,0.19662540523256594,0.3257262368030325,-0.13168099522590637,-0.40894588828086853,-0.903007984161377,0.09179125206324981,0.046442426184384177,0.1642948071623212,0.9810323716006351,0.08182405680418015,0.20028682053089142,0.3917087912559509,-0.012068048119544983,-0.015659987926483154,-0.002846360206604004
2025-09-20T01:56:40Z,0.06442952654117574,0.19881335113157111,0.3336055589883196,-0.13148140907287598,-0.40944331884384155,-0.902811586856842,0.09249353477785129,0.04807416055846212,0.16827716953255753,0.980212451596805,0.07993672788143158,0.1898157149553299,0.387466162443161,-0.0121193528175354,-0.014737218618392944,-0.003936409950256348
2025-09-20T01:56:40Z,0.06647162583802413,0.20096520191993922,0.341403041892614,-0.13142214715480804,-0.40990954637527466,-0.9026086926460266,0.09318465456235882,0.04961278822556748,0.17220846414314483,0.9793872015839058,0.0746372789144516,0.1813705414533615,0.38254350423812866,-0.011853843927383423,-0.013428837060928345,-0.006821990013122559
2025-09-20T01:56:40Z,0.06836285316151376,0.20292337346058803,0.3491918428992846,-0.13148115575313568,-0.4101908206939697,-0.9024722576141357,0.0937835597162504,0.05106655630417283,0.17612477487260522,0.978558542152586,0.06247211992740631,0.19011616706848145,0.3871946930885315,-0.008440002799034119,-0.011084258556365967,-0.009986937046051025
2025-09-20T01:56:40Z,0.07023922078128686,0.20489592966417677,0.3569800101783415,-0.13154280185699463,-0.41047143936157227,-0.9023357033729553,0.09438073661151361,0.05251938404115654,0.18003782682032082,0.9777117804206321,0.05030696094036102,0.19886179268360138,0.3918458819389343,-0.005023524165153503,-0.00874030590057373,-0.01315218210220337
2025-09-20T01:56:40Z,0.0723446758142276,0.20657672107097244,0.3649196133126458,-0.13141058385372162,-0.41044968366622925,-0.9023648500442505,0.09479993911530303,0.05407063016387054,0.18403083521082703,0.9768428523257539,0.041281089186668396,0.20398786664009094,0.3917173147201538,-0.005366429686546326,-0.011564284563064575,-0.008701205253601074
2025-09-20T01:56:40Z,0.07448866516120534,0.208109542485889,0.37276093936724713,-0.131205752491951,-0.4103016257286072,-0.9024620056152344,0.09513490221328548,0.05562650634742059,0.18797377991024528,0.9759717459774838,0.038498979061841965,0.1936347633600235,0.3781331479549408,-0.006902962923049927,-0.0175916850566864,-0.004823207855224609
2025-09-20T01:56:40Z,0.07660742832240341,0.20955847156923513,0.3802808616630233,-0.1309404969215393,-0.4101286232471466,-0.902579128742218,0.09542956245970001,0.057150191369046255,0.19175534738361905,0.9751189080759476,0.035203248262405396,0.1848217397928238,0.3573055565357208,-0.007232397794723511,-0.020458996295928955,-0.004415571689605713
2025-09-20T01:56:41Z,0.07857394763591073,0.210847226937516,0.3873177058227599,-0.1306942105293274,-0.40989622473716736,-0.9027203917503357,0.09566480249698314,0.05856432712665549,0.19529028186345307,0.9743100194584973,0.03322694078087807,0.1682632863521576,0.3321101665496826,-0.008570954203605652,-0.0219876766204834,-0.0024914145469665527
2025-09-20T01:56:41Z,0.08035344944617405,0.21210454625076613,0.39383865466219,-0.130497545003891,-0.4097278118133545,-0.9028252959251404,0.0959098148480332,0.059861821005153186,0.19856246749247936,0.9735454421233332,0.03125351667404175,0.154327392578125,0.3059026002883911,-0.00900702178478241,-0.021806985139846802,-0.0016534924507141113
2025-09-20T01:56:41Z,0.08196297213650575,0.21336460392416262,0.39973001620706583,-0.13031475245952606,-0.4096783995628357,-0.9028741121292114,0.09618495735274205,0.06104864548448406,0.20151821987979904,0.9728370047315386,0.028827248141169548,0.13766440749168396,0.2747913897037506,-0.007963716983795166,-0.02270221710205078,-0.0018062591552734375
2025-09-20T01:56:41Z,0.08336232075686066,0.21457493384248727,0.404978952024108,-0.13018018007278442,-0.4097062647342682,-0.9028809070587158,0.09647104041147316,0.06209941593732574,0.20414941373859932,0.9721933645744426,0.0245770625770092,0.12589086592197418,0.24212539196014404,-0.006684154272079468,-0.023539632558822632,-0.0029000043869018555
2025-09-20T01:56:41Z,0.08466367749869322,0.21563813779748678,0.4095101119405058,-0.1299758404493332,-0.4097420573234558,-0.9028940796852112,0.09671332808629564,0.06305508980134071,0.20642440794586076,0.9716272562510128,0.01650383695960045,0.10617966949939728,0.20168694853782654,-0.00810156762599945,-0.024558216333389282,-0.0013769865036010742
2025-09-20T01:56:41Z,0.08565748062338788,0.2165053629750539,0.41322566152997864,-0.1298711746931076,-0.4097640812397003,-0.9028991460800171,0.09691448501042266,0.06380366206263127,0.20828559119449938,0.9711609319034766,0.008813716471195221,0.08505327999591827,0.1647360920906067,-0.007478341460227966,-0.023006200790405273,-0.001646280288696289
2025-09-20T01:56:41Z,0.08643583501851589,0.21708885740376918,0.41626340331564676,-0.1298099160194397,-0.40966853499412537,-0.9029513001441956,0.0970196119111504,0.06438715066620036,0.20980381856276537,0.9707850911592967,-0.0028284257277846336,0.07134086638689041,0.13065874576568604,-0.005880966782569885,-0.022538691759109497,-0.0022053122520446777
2025-09-20T01:56:41Z,0.08700545716301782,0.21737229183289575,0.4186132941792785,-0.1297845095396042,-0.40944409370422363,-0.9030567407608032,0.09702162956328453,0.06480611286417114,0.21097470909210056,0.9705031658557147,-0.016572488471865654,0.04903899133205414,0.09739655256271362,-0.006468057632446289,-0.021372199058532715,-0.001931309700012207
2025-09-20T01:56:41Z,0.08733501203496441,0.21733904570907275,0.4203488215472028,-0.12983861565589905,-0.4090621769428253,-0.9032220244407654,0.09691428953338403,0.0650467977547757,0.21183244003150536,0.9703109426381302,-0.03506000339984894,0.03348715975880623,0.07035975903272629,-0.005579084157943726,-0.017190217971801758,-0.0035738348960876465
2025-09-20T01:56:41Z,0.08746182296879278,0.21685614201751854,0.4217317034217903,-0.12998755276203156,-0.4083518087863922,-0.9035220146179199,0.09662108681959691,0.06512623192437801,0.21250465144586417,0.9701878669399877,-0.053736038506031036,0.021433986723423004,0.05678652599453926,-0.004208773374557495,-0.012321710586547852,-0.0038670897483825684
2025-09-20T01:56:41Z,0.08745794516965144,0.216019379519828,0.42284899784516405,-0.1301877796649933,-0.40738046169281006,-0.9039315581321716,0.09617840477472125,0.06509304870544481,0.21303812148421258,0.9701170746639541,-0.06456366181373596,0.00492083840072155,0.0440351665019989,-0.005977809429168701,-0.01217612624168396,-0.0034285783767700195
2025-09-20T01:56:41Z,0.08705734216990994,0.2148552762748904,0.42372919302795964,-0.13068702816963196,-0.4061656892299652,-0.9044060707092285,0.09562672682193907,0.06482216153846546,0.21343430939668823,0.9701026794853842,-0.07325784862041473,-0.0014061774127185345,0.038961295038461685,-0.005468681454658508,-0.011322438716888428,-0.006000697612762451
2025-09-20T01:56:41Z,0.08665790317258598,0.21369078607870245,0.42460868457119966,-0.13118545711040497,-0.4049499034881592,-0.9048789739608765,0.09507497317090494,0.06455123845260392,0.21383037502727775,0.9700878029269823,-0.0819520354270935,-0.0077331941574811935,0.03388742357492447,-0.004960387945175171,-0.01046973466873169,-0.008574426174163818
2025-09-20T01:56:41Z,0.08637399317506014,0.21226606695751654,0.42533979510581105,-0.13154059648513794,-0.40353190898895264,-0.9054607152938843,0.09438936035133604,0.06430211576167882,0.21415755380875065,0.9700991613232459,-0.08920810371637344,-0.0024845460429787636,0.023844115436077118,-0.003136083483695984,-0.01191568374633789,-0.011746585369110107
2025-09-20T01:56:41Z,0.08625198597812307,0.21058001221092337,0.42575824184763106,-0.13167719542980194,-0.4019438922405243,-0.9061469435691833,0.09356953488296953,0.06408948198886504,0.21433820694361422,0.9701527614904861,-0.0994747132062912,0.004514892585575581,-0.0024532582610845566,-0.0041586607694625854,-0.017383456230163574,-0.011878609657287598
2025-09-20T01:56:41Z,0.08634848132546062,0.20867291165779378,0.42557446143305533,-0.13148662447929382,-0.4002807140350342,-0.9069104790687561,0.09263811163201256,0.06393181638437287,0.21423461350909928,0.9702754304939537,-0.10903310775756836,0.0077318595722317696,-0.03557541221380234,-0.005536437034606934,-0.021242737770080566,-0.009631752967834473
2025-09-20T01:56:41Z,0.0866230021519773,0.2064927860584895,0.42454637906596526,-0.13095425069332123,-0.3985450863838196,-0.9077515006065369,0.09158172728974968,0.06379395635874505,0.21372642391878863,0.9704968342198016,-0.11986702680587769,0.001858208328485489,-0.08254295587539673,-0.009100109338760376,-0.025039613246917725,-0.0062056779861450195
2025-09-20T01:56:41Z,0.0868421062386636,0.20393848152579233,0.4224580178889098,-0.13024388253688812,-0.3966897130012512,-0.9086659550666809,0.09038277105503645,0.06354408382513263,0.21269646239438206,0.9708517915839548,-0.13323014974594116,-0.01795128919184208,-0.14194077253341675,-0.012587592005729675,-0.029412031173706055,-0.001593172550201416
2025-09-20T01:56:41Z,0.0869282639055049,0.2010334838450244,0.41897984228497626,-0.1293584555387497,-0.39480069279670715,-0.909614622592926,0.08907059470420273,0.06313465162131883,0.21098073143544271,0.9713739877366071,-0.1492132842540741,-0.045444391667842865,-0.22263085842132568,-0.015518605709075928,-0.036990970373153687,0.0022777318954467773
2025-09-20T01:56:41Z,0.0866027568303854,0.1976769420483723,0.41367859575522253,-0.12845683097839355,-0.39287203550338745,-0.9105769395828247,0.08763724580751679,0.06240459466447816,0.20835423449083978,0.9721181938510673,-0.16842108964920044,-0.08338426053524017,-0.32484951615333557,-0.01818031072616577,-0.0445878803730011,0.006335020065307617
2025-09-20T01:56:41Z,0.08570082537317457,0.19371365703566137,0.40619023937208326,-0.12760388851165771,-0.39083102345466614,-0.91157466173172,0.08603106733688629,0.06124798314034377,0.20462962328046944,0.973125831063851,-0.19349221885204315,-0.1423434168100357,-0.44163793325424194,-0.023955315351486206,-0.04928112030029297,0.012172579765319824
2025-09-20T01:56:41Z,0.08400024920324885,0.18916371204593466,0.39633410139899083,-0.12695710361003876,-0.38872021436691284,-0.9125669598579407,0.08428166395756914,0.05955848622745398,0.19970760115271263,0.9744054529753473,-0.2141619622707367,-0.2012360841035843,-0.5610306859016418,-0.027652457356452942,-0.050825297832489014,0.013118147850036621
2025-09-20T01:56:41Z,0.08143003918517584,0.18424176193200817,0.38420365735446566,-0.12659630179405212,-0.3866984248161316,-0.9134756326675415,0.08248534678003443,0.05733415582778436,0.1936309077585247,0.9759178935770618,-0.22834691405296326,-0.25678861141204834,-0.6621683239936829,-0.025700360536575317,-0.044952839612960815,0.01198124885559082
2025-09-20T01:56:41Z,0.07813772559870225,0.17916064353703434,0.3702595064213325,-0.12647761404514313,-0.38484978675842285,-0.9142724275588989,0.0807038925763857,0.05469237722984996,0.18663064410172664,0.9775808990052197,-0.23224808275699615,-0.29292094707489014,-0.747284471988678,-0.01918390393257141,-0.04059275984764099,0.00624769926071167
2025-09-20T01:56:41Z,0.07459114864261607,0.17402424345999626,0.354517629791751,-0.12616592645645142,-0.38324835896492004,-0.9149878621101379,0.07893119009160332,0.05187684161338431,0.17873232827443916,0.9793534339959816,-0.23529498279094696,-0.3124857246875763,-0.840352475643158,-0.013626426458358765,-0.0411909818649292,-0.0008516907691955566
2025-09-20T01:56:41Z,0.07062102259368012,0.168725211201021,0.3366414324774367,-0.1257225126028061,-0.3818415105342865,-0.9156368970870972,0.07712675237091145,0.04878794189638258,0.16975989920893286,0.9812504913485776,-0.23840516805648804,-0.352753221988678,-0.9575873613357544,-0.01713547110557556,-0.04463967680931091,-0.0013718605041503906
2025-09-20T01:56:41Z,0.06575903862122058,0.16282928782785805,0.3155906825845413,-0.12530995905399323,-0.3803998827934265,-0.9162932634353638,0.07512227687515538,0.04513022247601984,0.15917641285829784,0.9833526595494924,-0.2450893223285675,-0.39182692766189575,-1.022592544555664,-0.020092636346817017,-0.02679210901260376,-0.00044280290603637695
2025-09-20T01:56:41Z,0.06077709841353424,0.15703568117010114,0.2945310713665951,-0.12493343651294708,-0.37894707918167114,-0.9169464111328125,0.07310775942499556,0.041466476854146506,0.14857163755210054,0.9853233835192889,-0.251773476600647,-0.43090060353279114,-1.0875977277755737,-0.023013755679130554,-0.008955717086791992,0.0004830360412597656
2025-09-20T01:56:41Z,0.05515208011376877,0.15101122545951196,0.27260196973836276,-0.12486665695905685,-0.37732747197151184,-0.9176231622695923,0.0709699928856184,0.03748500191532921,0.13750130246557893,0.9872443797347084,-0.2542637288570404,-0.4531255066394806,-1.1205800771713257,-0.019602328538894653,-0.005033373832702637,-0.004984796047210693
2025-09-20T01:56:41Z,0.04939288130490262,0.14497302406604864,0.24980645169830884,-0.12464220821857452,-0.3757219612598419,-0.9183122515678406,0.0687686863880172,0.03345683850281291,0.12598816451409986,0.9890795695704204,-0.2507176101207733,-0.4569888114929199,-1.1622005701065063,-0.012239709496498108,-0.013443976640701294,-0.015240490436553955
2025-09-20T01:56:41Z,0.043796190828440065,0.1389735466113822,0.22566744194526198,-0.123865507543087,-0.37423980236053467,-0.919022262096405,0.06651336386682673,0.029520260016925495,0.1138064233143853,0.990834267489543,-0.24472695589065552,-0.4474179148674011,-1.242048740386963,-0.011010169982910156,-0.026589244604110718,-0.023384809494018555
2025-09-20T01:56:41Z,0.038303633948702925,0.1331345627285339,0.2001804302090145,-0.12257734686136246,-0.37296751141548157,-0.9197119474411011,0.06426372828426268,0.025658084835657666,0.10095108492654556,0.992482027027723,-0.23602142930030823,-0.4404164254665375,-1.2999546527862549,-0.015458501875400543,-0.01805180311203003,-0.02234780788421631
2025-09-20T01:56:41Z,0.033293933922186714,0.12782649529991758,0.1738370331335671,-0.12054380774497986,-0.37214359641075134,-0.9203142523765564,0.0621777276505661,0.02209320802217682,0.08767904755435454,0.9939608238622137,-0.22186623513698578,-0.4211903214454651,-1.3098771572113037,-0.013775959610939026,-0.017984658479690552,-0.023464679718017578
2025-09-20T01:56:41Z,0.02814840116905451,0.12265108091325286,0.14748456326042372,-0.11853780597448349,-0.37126389145851135,-0.9209299087524414,0.060079554505882427,0.01852401264442603,0.07438988152473766,0.9952454068628844,-0.20771104097366333,-0.4019642174243927,-1.3197996616363525,-0.012065894901752472,-0.017973363399505615,-0.024568140506744385
2025-09-20T01:56:41Z,0.02287052674575042,0.11761206888975677,0.1211218555689882,-0.11656089127063751,-0.3703291714191437,-0.9215583801269531,0.05796967199373964,0.014951208823816045,0.06108617349819574,0.9963355092104713,-0.19355584681034088,-0.3827381432056427,-1.3297220468521118,-0.010326728224754333,-0.018017083406448364,-0.025658845901489258
2025-09-20T01:56:41Z,0.018407900979707646,0.11331781358728912,0.09408717825514162,-0.11357411742210388,-0.36998218297958374,-0.9220705628395081,0.05613142995309885,0.011841804107099597,0.04746941628933025,0.9972238784660856,-0.16589942574501038,-0.3548925518989563,-1.3788288831710815,-0.008862979710102081,-0.028260380029678345,-0.025539398193359375
2025-09-20T01:56:41Z,0.014399616848624052,0.10980530955015255,0.06601940801257276,-0.10980778932571411,-0.3702869117259979,-0.922404408454895,0.054606504522425825,0.008996016611312621,0.03334800022730978,0.9979103004593801,-0.1320471316576004,-0.34595006704330444,-1.4280821084976196,-0.016134127974510193,-0.028276950120925903,-0.019207656383514404
2025-09-20T01:56:41Z,0.01052171241902947,0.10712490472891176,0.036707059492462765,-0.10549510270357132,-0.37129008769989014,-0.9225044250488281,0.05343067863188536,0.006234924142956359,0.018607527686352827,0.9983786680144434,-0.09764518588781357,-0.3626987636089325,-1.4855408668518066,-0.027216218411922455,-0.02719295024871826,-0.008038699626922607
2025-09-20T01:56:41Z,0.0059916802150888435,0.10522225583737654,0.006352457086892092,-0.10140369832515717,-0.37288928031921387,-0.9223182201385498,0.052576859880968455,0.003158702401237563,0.0033293551889370943,0.9986062820128325,-0.06772445142269135,-0.4102969169616699,-1.5332573652267456,-0.03856123238801956,-0.018674224615097046,0.0026697516441345215
2025-09-20T01:56:41Z,0.00035316813056576323,0.10398209547607214,-0.024635621663582397,-0.09806109219789505,-0.3749101459980011,-0.9218602776527405,0.051965860260884324,-0.00046377923905563086,-0.01229168012986328,0.9985730482957478,-0.045210473239421844,-0.4732273519039154,-1.5435327291488647,-0.04458524286746979,0.0005385875701904297,0.008158266544342041
2025-09-20T01:56:41Z,-0.006333105089257531,0.1033379810269236,-0.05561421578489107,-0.09558922052383423,-0.3772151470184326,-0.9211793541908264,0.05153785833489683,-0.0045970330141092645,-0.027929758241992272,0.9982697633372989,-0.02936527691781521,-0.5101354718208313,-1.5278069972991943,-0.03873998671770096,0.011463135480880737,0.0008245706558227539
2025-09-20T01:56:41Z,-0.013375173528850773,0.10336417422796493,-0.08607131499620226,-0.09349894523620605,-0.37982872128486633,-0.9203195571899414,0.05132276999691162,-0.008894871046440413,-0.0433091229556655,0.9977029166646038,-0.014348974451422691,-0.5062719583511353,-1.500295877456665,-0.03156167268753052,0.01708492636680603,-0.007700145244598389
2025-09-20T01:56:41Z,-0.020413240509470024,0.10360365249415114,-0.11652791227240684,-0.09132178127765656,-0.38237786293029785,-0.9194822311401367,0.05109457458618459,-0.013190422636746397,-0.058677436400244844,0.9968812770154144,0.0006673289462924004,-0.5024084448814392,-1.4727847576141357,-0.024470239877700806,0.022642284631729126,-0.01620239019393921
2025-09-20T01:56:41Z,-0.02722687480942998,0.10430752269197735,-0.14573145707140042,-0.08922012895345688,-0.3850116729736328,-0.9185889959335327,0.050997279061551826,-0.017353221882645563,-0.07340330973011394,0.9958463887698317,0.008302126079797745,-0.4716131389141083,-1.4070448875427246,-0.01673092693090439,0.03280416131019592,-0.025437474250793457
2025-09-20T01:56:41Z,-0.033388117344569174,0.10531092336467376,-0.17342484383568146,-0.08689048886299133,-0.3875931203365326,-0.9177263379096985,0.05098238691787698,-0.021164936361366803,-0.08734700443207138,0.9946473015736693,0.012441584840416908,-0.4340513050556183,-1.335193157196045,-0.013014011085033417,0.0359688401222229,-0.029888451099395752
2025-09-20T01:56:41Z,-0.03894593848118999,0.10647612755492113,-0.19942729188067781,-0.08444637060165405,-0.3900209665298462,-0.9169255495071411,0.051002924044888445,-0.024643830281637826,-0.1004196101891013,0.9933313258257973,0.0098844263702631,-0.3877476155757904,-1.2487860918045044,-0.010140366852283478,0.04128575325012207,-0.030018508434295654
2025-09-20T01:56:41Z,-0.04382679314357054,0.10762563227321056,-0.2237907410277511,-0.08182132989168167,-0.39217114448547363,-0.9162461757659912,0.05099449322568586,-0.027747602696088558,-0.11264480952409629,0.9919377867041833,0.0051637087017297745,-0.365522563457489,-1.1677337884902954,-0.013703778386116028,0.04257863759994507,-0.024060308933258057
2025-09-20T01:56:41Z,-0.04846979210131179,0.10867927027382829,-0.24648822395104744,-0.07943828403949738,-0.39400315284729004,-0.9156697392463684,0.050910549874767126,-0.030688081972804208,-0.12402102781916313,0.9904972880972344,-0.0001203133724629879,-0.3460950255393982,-1.0819227695465088,-0.015384204685688019,0.04357960820198059,-0.02250725030899048
2025-09-20T01:56:41Z,-0.052962533865152844,0.10959303612718686,-0.2671391897750003,-0.07749858498573303,-0.3954983651638031,-0.9151912331581116,0.050741353218047416,-0.033494136100194014,-0.1343635496633785,0.9890651227274541,-0.010294653475284576,-0.3195536732673645,-0.9835910797119141,-0.013566851615905762,0.04599645733833313,-0.024434030055999756
2025-09-20T01:56:41Z,-0.057032637436607664,0.11030515060505351,-0.28594236208361395,-0.07570382207632065,-0.39664143323898315,-0.9148467183113098,0.05048359283710618,-0.036029847946720005,-0.143765818781459,0.9876662420457557,-0.017906757071614265,-0.2994990050792694,-0.8908195495605469,-0.010101519525051117,0.04274141788482666,-0.023382484912872314
2025-09-20T01:56:42Z,-0.060715255628541874,0.11086762869348853,-0.3034773734089236,-0.07392099499702454,-0.39752110838890076,-0.9146106839179993,0.0501625539927057,-0.03832917787706594,-0.15251774001730722,0.9862823679345605,-0.02023475244641304,-0.2735843062400818,-0.8406655788421631,-0.007745765149593353,0.027851611375808716,-0.02289426326751709
2025-09-20T01:56:42Z,-0.06422971948940365,0.11151457499264059,-0.31995859319566694,-0.07228569686412811,-0.39837437868118286,-0.914370059967041,0.04988141970105503,-0.04052289790513349,-0.1607347681159316,0.9849029838328937,-0.015982113778591156,-0.2625763416290283,-0.7904072403907776,-0.011581569910049438,0.02486172318458557,-0.019434809684753418
2025-09-20T01:56:42Z,-0.06780383633976245,0.11216636092614297,-0.33525772394792724,-0.07104784995317459,-0.3991423547267914,-0.9141321778297424,0.04958994433060144,-0.04271469138185363,-0.16836022144961704,0.9835502007610111,-0.006655154749751091,-0.2641371786594391,-0.7309310436248779,-0.013228826224803925,0.027313530445098877,-0.015429973602294922
2025-09-20T01:56:42Z,-0.07156904406049996,0.11282849983698959,-0.34925159179299103,-0.07036500424146652,-0.3998452126979828,-0.9138777852058411,0.04928529520430887,-0.04496665005257288,-0.17533877200978978,0.982244986150681,0.0030534928664565086,-0.2613843083381653,-0.65907883644104,-0.009950682520866394,0.028751254081726074,-0.017531096935272217
2025-09-20T01:56:42Z,-0.07511929237677181,0.1136578722912612,-0.36201899751607125,-0.06983912736177444,-0.4006427526473999,-0.9135687947273254,0.04908191890836473,-0.04709548076800859,-0.1817032791094587,0.9809978740585742,0.011962903663516045,-0.23488980531692505,-0.616741418838501,-0.0019579529762268066,0.01849117875099182,-0.021992504596710205
2025-09-20T01:56:42Z,-0.07845676404338617,0.11464921290182731,-0.3740263486896035,-0.06933562457561493,-0.40154266357421875,-0.9132119417190552,0.048971252164514416,-0.04911526025964417,-0.18768455217439084,0.9797774793597775,0.024439802393317223,-0.223557710647583,-0.5830034613609314,-0.0025831088423728943,0.015117436647415161,-0.018925487995147705
2025-09-20T01:56:42Z,-0.08164702757323326,0.11573246953186005,-0.3844702052411955,-0.06915201991796494,-0.40249311923980713,-0.9128073453903198,0.048937080676495354,-0.051033516348896156,-0.19289147657039174,0.9786692114587623,0.03025314025580883,-0.20872139930725098,-0.523749053478241,-0.0033266469836235046,0.019328951835632324,-0.020393967628479004
2025-09-20T01:56:42Z,-0.08482615640256326,0.11684868248383813,-0.39491188889980755,-0.06895677000284195,-0.403441458940506,-0.912403404712677,0.04890129987285688,-0.052950137863274585,-0.19809222395715745,0.9775296558219652,0.03606647998094559,-0.19388510286808014,-0.46449464559555054,-0.004081837832927704,0.023538291454315186,-0.02186185121536255
2025-09-20T01:56:42Z,-0.08751546825498223,0.11786578543604473,-0.4040591432668571,-0.06869648396968842,-0.4042815864086151,-0.9120510816574097,0.04888333289740083,-0.05458689465097695,-0.2026420179433358,0.9765074001860778,0.03272358328104019,-0.1769716590642929,-0.4293758273124695,-0.001582019031047821,0.018127888441085815,-0.021631598472595215
2025-09-20T01:56:42Z,-0.08990105767149824,0.11873906068545241,-0.4124831325313483,-0.06837582588195801,-0.40497538447380066,-0.9117673635482788,0.04883277433132031,-0.05604404436178018,-0.2068250262289591,0.9755499295818286,0.025004468858242035,-0.1591489315032959,-0.4029606282711029,-4.536658525466919e-05,0.015732258558273315,-0.021828114986419678
2025-09-20T01:56:42Z,-0.0921040447981662,0.11937034273166151,-0.4203292633103066,-0.06806684285402298,-0.405436247587204,-0.9115856289863586,0.04868847856112445,-0.05737363300813589,-0.21071426997050152,0.9746470914742947,0.01454981416463852,-0.15296277403831482,-0.37725886702537537,-0.0011666864156723022,0.017764568328857422,-0.01949334144592285
2025-09-20T01:56:42Z,-0.09433899760197703,0.1195686539879321,-0.42750795410602416,-0.06799919158220291,-0.40549546480178833,-0.9115643501281738,0.04833950317219916,-0.05865698059288107,-0.21426860260119635,0.9738127971167164,-0.0002503730356693268,-0.14647331833839417,-0.3384442925453186,-0.0027481168508529663,0.023260384798049927,-0.01898592710494995
2025-09-20T01:56:42Z,-0.09651473458807217,0.1195615767292408,-0.43384218164070243,-0.0681334137916565,-0.4053688645362854,-0.9116106033325195,0.04791356182673932,-0.05986763700916021,-0.21740383845271558,0.9730649701609866,-0.006683003157377243,-0.14733658730983734,-0.28649166226387024,-0.004166647791862488,0.0255260169506073,-0.01572716236114502
2025-09-20T01:56:42Z,-0.09880646555756394,0.11954097887854516,-0.4391595310716226,-0.06867198646068573,-0.4052402079105377,-0.9116274118423462,0.04749208460868775,-0.06110689746423983,-0.22004433600206463,0.9724148978246042,-0.0020772903226315975,-0.14204415678977966,-0.2389068305492401,-0.0014616921544075012,0.020286530256271362,-0.014702796936035156
2025-09-20T01:56:42Z,-0.10104165485432966,0.11963362473205338,-0.4436268828219368,-0.069403275847435,-0.4052262008190155,-0.9115782380104065,0.0471521764167084,-0.06230902389658913,-0.22227029582680485,0.9718487602166833,0.011179652065038681,-0.13672198355197906,-0.20093359053134918,-0.0007163360714912415,0.014777183532714844,-0.013511240482330322
2025-09-20T01:56:42Z,-0.10317615209993385,0.11982103448901936,-0.44722994773456615,-0.07029125839471817,-0.4053136706352234,-0.9114713072776794,0.04689188635496208,-0.06345104076683626,-0.22407428696100873,0.9713730936820191,0.01940038427710533,-0.12536096572875977,-0.15507744252681732,0.00011593848466873169,0.01579931378364563,-0.01577216386795044
2025-09-20T01:56:42Z,-0.10519354563671456,0.12000240989286282,-0.44987474856450416,-0.07135199755430222,-0.40541550517082214,-0.9113436341285706,0.046668780979183665,-0.0645123671664613,-0.22540916056677415,0.9710050368908053,0.020498882979154587,-0.10190722346305847,-0.10614381730556488,0.00175417959690094,0.01621606945991516,-0.020931780338287354
2025-09-20T01:56:42Z,-0.1067775769472394,0.12006033682504458,-0.45147011418306476,-0.0723285898566246,-0.4054288864135742,-0.9112606644630432,0.04646630869855766,-0.06532483395432608,-0.22622161064964555,0.9707714493964413,0.011834711767733097,-0.07620640844106674,-0.055587150156497955,0.002500094473361969,0.016819238662719727,-0.023064374923706055
2025-09-20T01:56:42Z,-0.10793075742958855,0.11985582803050222,-0.4520900116657165,-0.07320791482925415,-0.4052264392375946,-0.9112805128097534,0.04621603771541719,-0.06587639887980645,-0.22654524021509514,0.9706706382307946,-0.002930879592895508,-0.05392232909798622,-0.006406355649232864,0.002764381468296051,0.015848308801651,-0.019912004470825195
2025-09-20T01:56:42Z,-0.1088941839550321,0.11929266552817339,-0.45181460841106896,-0.07419075071811676,-0.40471863746643066,-0.9114266633987427,0.04584230236972541,-0.06627565390540469,-0.2264226728864081,0.9706897736199388,-0.017113281413912773,-0.047713734209537506,0.03510458394885063,-0.0001246929168701172,0.011403083801269531,-0.013550400733947754
2025-09-20T01:56:42Z,-0.10999408336706895,0.11829282440602047,-0.4507968697104551,-0.07553369551897049,-0.4038299322128296,-0.9117105007171631,0.04526572049407803,-0.06667642642179505,-0.22593376642621318,0.970803311271225,-0.03179648891091347,-0.046601515263319016,0.07192007452249527,-0.0013497918844223022,0.009924858808517456,-0.010568201541900635
2025-09-20T01:56:42Z,-0.11055035750531766,0.11678364191144087,-0.4488963050682103,-0.07666102796792984,-0.40249601006507874,-0.9122061729431152,0.04453265832484773,-0.06673843820775432,-0.2249929992719759,0.9710514260201922,-0.041097600013017654,-0.029786692932248116,0.08967620134353638,-0.0013978630304336548,0.002662152051925659,-0.011498749256134033
2025-09-20T01:56:42Z,-0.11110363899443138,0.11527341626598382,-0.446996954672017,-0.07778578996658325,-0.4011591672897339,-0.9126996994018555,0.043799531105439944,-0.06680034770143917,-0.22405191137637342,0.9712981061689011,-0.05039871111512184,-0.012971868738532066,0.10743233561515808,-0.0014484822750091553,-0.0046035051345825195,-0.012431442737579346
2025-09-20T01:56:42Z,-0.11155370558832269,0.11370316476499202,-0.44488178754991503,-0.07888223230838776,-0.3997703194618225,-0.9132148027420044,0.04305607395811702,-0.06680240439242924,-0.2230017024468227,0.9715728281919804,-0.05812888965010643,-0.007226979825645685,0.11958572268486023,-0.004531756043434143,-0.004768401384353638,-0.010710060596466064
2025-09-20T01:56:42Z,-0.11183689949638763,0.11196312664211384,-0.44251172397788635,-0.0799083337187767,-0.3982292711734772,-0.9137987494468689,0.04225705594076719,-0.0667012892088201,-0.22181969092772494,0.9718853952703969,-0.0719323381781578,0.002046846318989992,0.13682164251804352,-0.0057841092348098755,-0.000760495662689209,-0.014081954956054688
2025-09-20T01:56:42Z,-0.11177732135414711,0.1099286000347515,-0.4397604602104981,-0.08074523508548737,-0.3964233994483948,-0.9145100712776184,0.04136495719869523,-0.06639602241769435,-0.22043818349992675,0.9722588928768826,-0.0874345600605011,0.02747396007180214,0.15801091492176056,-0.0031424611806869507,0.0016787052154541016,-0.01764702796936035
2025-09-20T01:56:42Z,-0.11124494821216321,0.10773108084681857,-0.4365893644349461,-0.08127858489751816,-0.3944726884365082,-0.915306031703949,0.04045828587784079,-0.06583746668024525,-0.2188386754858404,0.972696253142217,-0.09491578489542007,0.050528548657894135,0.17610789835453033,-0.0028877630829811096,-0.0004710555076599121,-0.016074001789093018
2025-09-20T01:56:42Z,-0.11044039657200495,0.10545803335321047,-0.4331342953368257,-0.0816475972533226,-0.3924533426761627,-0.9161408543586731,0.039551887719681184,-0.06513579138657408,-0.2170934527524129,0.9731717665169316,-0.1001218929886818,0.061445847153663635,0.19292059540748596,-0.004138752818107605,-0.00017389655113220215,-0.013007700443267822
2025-09-20T01:56:42Z,-0.10956979386688981,0.10299673025563576,-0.42920422464290536,-0.08210106939077377,-0.390264093875885,-0.9170351028442383,0.0385737344154555,-0.06437622892156952,-0.21511129855692945,0.9737016098976945,-0.10712109506130219,0.07084095478057861,0.2234010398387909,-0.00657103955745697,0.007426232099533081,-0.013025104999542236
2025-09-20T01:56:42Z,-0.10848252431854584,0.10020836947726748,-0.42451256602570975,-0.08258983492851257,-0.3877798020839691,-0.9180445075035095,0.03748039711959422,-0.063466798690082,-0.21274658330784701,0.9743233722044025,-0.11654794216156006,0.08494308590888977,0.2716178297996521,-0.0049554333090782166,0.016327083110809326,-0.015152454376220703
2025-09-20T01:56:42Z,-0.10713802957247719,0.09716591939837337,-0.41878893104620274,-0.08315147459506989,-0.38506779074668884,-0.9191347360610962,0.03631812071830455,-0.06239243096599041,-0.20986803164785783,0.9750606960540065,-0.12304800748825073,0.11042732000350952,0.32777541875839233,-0.0012034252285957336,0.017517656087875366,-0.020305871963500977
2025-09-20T01:56:42Z,-0.10516438124591426,0.09402956458343431,-0.4119735384548748,-0.08345375210046768,-0.3822709321975708,-0.9202740788459778,0.0352023707275151,-0.06098928682307088,-0.2064426856585876,0.9759212056611153,-0.12297265976667404,0.15006965398788452,0.3734646439552307,0.002229735255241394,0.010488778352737427,-0.0238417387008667
2025-09-20T01:56:42Z,-0.10284040271741374,0.0908627780495728,-0.4043448162333095,-0.08366785943508148,-0.37943801283836365,-0.9214263558387756,0.03412208693489064,-0.05940610339588623,-0.20261237371124527,0.9768596316946999,-0.10960022360086441,0.15568269789218903,0.40572160482406616,-0.0040669068694114685,0.006364047527313232,-0.0158078670501709
2025-09-20T01:56:42Z,-0.10054642160230123,0.08781809274109623,-0.39598563121688674,-0.08411364257335663,-0.3767039179801941,-0.9225069284439087,0.033107867793996756,-0.05784609613919867,-0.19842660634300865,0.9778468941290462,-0.09741448611021042,0.1528538316488266,0.4570889174938202,-0.010931625962257385,0.01491636037826538,-0.013152778148651123
2025-09-20T01:56:42Z,-0.0969102587130615,0.08497737382994293,-0.3834973766151107,-0.08451620489358902,-0.3741590082645416,-0.9235053062438965,0.03242605388760243,-0.05559092929064453,-0.19220003143611245,0.9792431389300109,-0.07995330542325974,0.19112133979797363,0.5265935659408569,-0.009662352502346039,0.01430007815361023,-0.016064763069152832
2025-09-20T01:56:42Z,-0.0932396960056009,0.08218216194570051,-0.37100192968883317,-0.08488182723522186,-0.3716077506542206,-0.924501359462738,0.03174274632950025,-0.0533332153461316,-0.18596461762678684,0.980594150238389,-0.06249212473630905,0.22938886284828186,0.5960981845855713,-0.00843001902103424,0.013677388429641724,-0.018979012966156006
2025-09-20T01:56:42Z,-0.08953520547969052,0.07943284547553756,-0.3584990457003079,-0.08521044254302979,-0.3690505027770996,-0.9254949688911438,0.03105795069239553,-0.051073026662307716,-0.17972057556802898,0.9818998306984381,-0.04503094404935837,0.2676563858985901,0.6656028032302856,-0.007234685122966766,0.013048708438873291,-0.02189570665359497
2025-09-20T01:56:42Z,-0.08579732645797447,0.07672992682325294,-0.3459887275602825,-0.08550195395946503,-0.36648768186569214,-0.9264859557151794,0.03037171935909897,-0.048810480991331014,-0.17346823732575978,0.9831600422468209,-0.027569763362407684,0.3059239089488983,0.735107421875,-0.0060764700174331665,0.012414515018463135,-0.024815082550048828
2025-09-20T01:56:42Z,-0.08092936793514263,0.07461423259932691,-0.33083394250431714,-0.08549555391073227,-0.36439716815948486,-0.9273107647895813,0.03010260847320422,-0.046010353793495655,-0.16590262586181675,0.9846080581185296,-0.00417286716401577,0.3331551253795624,0.8276499509811401,-0.010783940553665161,0.026066333055496216,-0.02552109956741333
2025-09-20T01:56:42Z,-0.07530678328827295,0.07280506258378278,-0.31320596961764563,-0.08549658954143524,-0.3624861538410187,-0.9280593395233154,0.030056361673045907,-0.04283139646942444,-0.15710316616147335,0.9861949716010212,0.004401352256536484,0.37872734665870667,0.9456876516342163,-0.009109139442443848,0.04126283526420593,-0.030143260955810547
2025-09-20T01:56:42Z,-0.06843269354986513,0.07121491411586212,-0.2932720599222709,-0.08499443531036377,-0.3606388568878174,-0.9288248419761658,0.030202025197427162,-0.039019592029316416,-0.1471378179946844,0.9878843978502119,0.008024662733078003,0.4422147870063782,1.046252727508545,-0.002944938838481903,0.03842055797576904,-0.03497689962387085
2025-09-20T01:56:42Z,-0.060609674167863635,0.06990796811572486,-0.27165124342341285,-0.08408234268426895,-0.3588924705982208,-0.9295839667320251,0.030508711070165527,-0.03473272227791799,-0.13631268568083277,0.9895865330881475,0.015500852838158607,0.4892926514148712,1.1174672842025757,-0.0053849294781684875,0.02919161319732666,-0.033842504024505615
2025-09-20T01:56:42Z,-0.052131242461660135,0.06887237354844962,-0.24844703898673334,-0.08299794048070908,-0.35720813274383545,-0.9303298592567444,0.030925109739235408,-0.030111004611635135,-0.12467916925588086,0.9912577295561067,0.030006472021341324,0.5219143033027649,1.1936800479888916,-0.011953547596931458,0.02836701273918152,-0.027653276920318604
2025-09-20T01:56:42Z,-0.04322803620612625,0.06834477275519701,-0.2236359314759104,-0.08195267617702484,-0.35577431321144104,-0.9309717416763306,0.03153423174086677,-0.025276323469182852,-0.11222770045709998,0.9928602650061825,0.05158698558807373,0.5449907779693604,1.2809807062149048,-0.01743078976869583,0.027390360832214355,-0.02181941270828247
2025-09-20T01:56:42Z,-0.03358849378166502,0.06863792086989139,-0.19706321674039082,-0.08069171756505966,-0.35484156012535095,-0.9314377903938293,0.03248994819590146,-0.020077059820356378,-0.09887389665772922,0.9943667009349179,0.08397936820983887,0.6042134165763855,1.3586195707321167,-0.012702152132987976,0.018827110528945923,-0.02846848964691162
2025-09-20T01:56:42Z,-0.022930305000655488,0.06988717781204525,-0.16926715173948295,-0.07879000902175903,-0.35452720522880554,-0.9317202568054199,0.03384057842301362,-0.014369968933771071,-0.08487453411256454,0.9957130656404356,0.11672089993953705,0.6517414450645447,1.4024804830551147,-0.012970149517059326,0.008542865514755249,-0.02902764081954956
2025-09-20T01:56:42Z,-0.011604788810735029,0.07202937958545909,-0.14082757299226498,-0.07640526443719864,-0.3547811508178711,-0.9318221807479858,0.035509112576214134,-0.008317476409996685,-0.07051722067272165,0.9968435675054254,0.14435334503650665,0.6790862679481506,1.4303656816482544,-0.019516535103321075,0.007103979587554932,-0.023989558219909668
2025-09-20T01:56:42Z,-7.670014601153567e-05,0.07490221815902834,-0.11178289592704509,-0.07395770400762558,-0.35543909668922424,-0.9317688941955566,0.03738174937648128,-0.0021298817740300186,-0.05582461878705845,0.9977382215155464,0.16236986219882965,0.6842589974403381,1.4620609283447266,-0.026998795568943024,0.012367039918899536,-0.01336359977722168
2025-09-20T01:56:42Z,0.011175401827027394,0.07842678982559333,-0.08221877590417571,-0.07186426222324371,-0.3564195930957794,-0.9315581321716309,0.03939907963940574,0.00396751262898557,-0.04084670707915293,0.9983803874125626,0.173225998878479,0.6635863780975342,1.479830265045166,-0.03223505616188049,0.007465839385986328,-0.0036170482635498047
2025-09-20T01:56:42Z,0.021644510601130148,0.08247349844678116,-0.05263976680034239,-0.07044892758131027,-0.3576349914073944,-0.931200385093689,0.04149293232851659,0.00972424913253723,-0.025846948054593227,0.9987570669721123,0.1796218454837799,0.6205258965492249,1.4647324085235596,-0.03283224254846573,-0.004539072513580322,0.0075476765632629395
2025-09-20T01:56:43Z,0.031017246207597503,0.08688359459712548,-0.023837037101319337,-0.06977783143520355,-0.35901591181755066,-0.9307194352149963,0.04360448432290936,0.014974746309924002,-0.011232125092371358,0.9988734311958095,0.18145373463630676,0.5566012263298035,1.404776692390442,-0.03676079958677292,-0.019667237997055054,0.014562845230102539
2025-09-20T01:56:43Z,0.03795154067917199,0.09130174894476692,0.002764653556194623,-0.0707044005393982,-0.3604033589363098,-0.9301130771636963,0.04560056365964382,0.019017918490150776,0.0022465448876165554,0.9987760739538478,0.17296069860458374,0.4767796993255615,1.3425641059875488,-0.03771163523197174,-0.020490020513534546,0.017486631870269775
2025-09-20T01:56:43Z,0.044768265811235705,0.0959019786692816,0.029346189434297742,-0.07167317718267441,-0.36176344752311707,-0.9295107126235962,0.04758742828067433,0.023057252078831598,0.015724759146664956,0.9984769658672865,0.16446766257286072,0.3969581723213196,1.2803515195846558,-0.038620270788669586,-0.021340101957321167,0.020414412021636963
2025-09-20T01:56:43Z,0.04980943920617276,0.10029764171874622,0.05437542626957133,-0.07380222529172897,-0.36292415857315063,-0.9288914203643799,0.04941764761985842,0.02622392096142308,0.028389601271054565,0.9980300398886467,0.15082819759845734,0.34264352917671204,1.2150768041610718,-0.0326712429523468,-0.02535143494606018,0.011144280433654785
2025-09-20T01:56:43Z,0.05397764192499117,0.10445510517532816,0.07802317850831761,-0.07630308717489243,-0.3638670742511749,-0.9283202886581421,0.0510940555803029,0.028963544677089077,0.04034201227333856,0.9974581479056012,0.13953977823257446,0.31305980682373047,1.1504076719284058,-0.02559613436460495,-0.02884584665298462,0.0018281340599060059
2025-09-20T01:56:43Z,0.057419798963197724,0.10850639139199568,0.10031677194446342,-0.07905533909797668,-0.3647388219833374,-0.9277477264404297,0.052698950272136065,0.0313453317736536,0.05159763142672742,0.9967836860201761,0.13838772475719452,0.2747270464897156,1.0906542539596558,-0.024434618651866913,-0.028403401374816895,0.0026395320892333984
2025-09-20T01:56:43Z,0.06028606865737519,0.11261041130912529,0.12163637206660048,-0.0820288360118866,-0.36565932631492615,-0.9271270036697388,0.05431696977739225,0.033453988522352686,0.06234974146481885,0.9960134325796468,0.1439473181962967,0.24966630339622498,1.0473359823226929,-0.022636741399765015,-0.0275040864944458,0.003334343433380127
2025-09-20T01:56:43Z,0.06263391283310561,0.11680722862717759,0.14194846764058555,-0.08516774326562881,-0.36668747663497925,-0.9264376759529114,0.05597823966937646,0.03531704933266648,0.07258213423867058,0.9951636434977981,0.1477503925561905,0.21775999665260315,0.9905423521995544,-0.0202518031001091,-0.030525922775268555,0.0030063390731811523
2025-09-20T01:56:43Z,0.06451846629804335,0.12107489380461227,0.1611258817000279,-0.08839422464370728,-0.3678385615348816,-0.9256787896156311,0.05768199233453423,0.036956429109505244,0.08223164620407154,0.994255929177208,0.15107890963554382,0.1980155110359192,0.9323480725288391,-0.01551055908203125,-0.031215816736221313,-0.0005453824996948242
2025-09-20T01:56:43Z,0.06616790419649439,0.12526850243801677,0.17912597246216472,-0.09149006009101868,-0.3690033257007599,-0.9249141216278076,0.05935551812320043,0.03847622652566004,0.09128122061030251,0.9933096893562263,0.1497720628976822,0.18450525403022766,0.870322585105896,-0.011897720396518707,-0.0317099392414093,-0.001862168312072754
2025-09-20T01:56:43Z,0.06756485776664521,0.12936975281205768,0.19588967888418,-0.09446393698453903,-0.3701913058757782,-0.9241401553153992,0.06099728179221944,0.0398612361265925,0.09970094268771895,0.9923457130035536,0.1460026651620865,0.1726420372724533,0.8110914826393127,-0.011883042752742767,-0.032105445861816406,-0.004106879234313965
2025-09-20T01:56:43Z,0.06882913444095146,0.13342218234278982,0.2113701092798231,-0.09720288217067719,-0.37146610021591187,-0.9233441948890686,0.06262888797576313,0.04116755844647481,0.10747234671515409,0.9913790448091805,0.14175380766391754,0.15558654069900513,0.7441343069076538,-0.011404864490032196,-0.03445708751678467,-0.0024935007095336914
2025-09-20T01:56:43Z,0.06976254569608076,0.13730642088525835,0.2254558381836549,-0.09986814856529236,-0.37275201082229614,-0.9225412011146545,0.06420869580503384,0.042283217288067526,0.11453323395343903,0.9904399839803302,0.1276264190673828,0.13662230968475342,0.6720588803291321,-0.011433973908424377,-0.03446012735366821,-0.0036848783493041992
2025-09-20T01:56:43Z,0.07054599266757561,0.1407625216066715,0.2381374131291838,-0.10229209065437317,-0.373828649520874,-0.921839714050293,0.06560307537109104,0.04327762388410015,0.12088220625350879,0.9895507569429288,0.11334652453660965,0.12237855046987534,0.6079561114311218,-0.012612804770469666,-0.030114442110061646,-0.005353391170501709
2025-09-20T01:56:43Z,0.07121133918389667,0.14397092330816214,0.2498413601980288,-0.1045595183968544,-0.37480297684669495,-0.9211894869804382,0.06689371877521426,0.0441849558828989,0.12673497144846504,0.9886916148089926,0.10190293192863464,0.11080918461084366,0.5671132206916809,-0.011640824377536774,-0.02155730128288269,-0.0036798715591430664
2025-09-20T01:56:43Z,0.07173360008789534,0.14694003452295512,0.2607427256474438,-0.10674009472131729,-0.37566179037094116,-0.9205893874168396,0.06808501143366542,0.04499543454233708,0.13217814066955105,0.9878606438008662,0.09482201933860779,0.10086062550544739,0.5261523127555847,-0.009746342897415161,-0.02463054656982422,-0.003887474536895752
2025-09-20T01:56:43Z,0.07203111170155906,0.14981892334213534,0.2702772819374872,-0.10878482460975647,-0.37664517760276794,-0.9199479818344116,0.06927136276582263,0.0456558250463006,0.13693297725006565,0.9870999002860918,0.09174921363592148,0.0855284258723259,0.4877244234085083,-0.01022542268037796,-0.022941917181015015,-0.0031955838203430176
2025-09-20T01:56:43Z,0.07230096499376423,0.15270048588588464,0.2798151749920353,-0.11084000766277313,-0.3776074945926666,-0.9193079471588135,0.07045597727059662,0.04631506896504369,0.14168438934484143,0.9863144869132751,0.08867641538381577,0.0701962262392044,0.4492965340614319,-0.010694056749343872,-0.021274417638778687,-0.0025023221969604492
2025-09-20T01:56:43Z,0.07215851927373423,0.15531207214630696,0.2884097919408746,-0.11303284019231796,-0.37846872210502625,-0.91868656873703,0.07155478164810553,0.04673059246423931,0.14594860868535645,0.9855937611193734,0.08157940208911896,0.053418368101119995,0.40817588567733765,-0.011118128895759583,-0.021213501691818237,-0.004030406475067139
2025-09-20T01:56:43Z,0.07191076925271477,0.15772985076830895,0.2961217118430537,-0.11510097235441208,-0.37929341197013855,-0.9180895090103149,0.0725843416174934,0.04705845073702449,0.149767996790559,0.9849296815749277,0.07432392984628677,0.0390409380197525,0.3698999583721161,-0.011994346976280212,-0.020590156316757202,-0.00411456823348999
2025-09-20T01:56:43Z,0.07133771007171001,0.15998102030282887,0.3030743913856867,-0.11727863550186157,-0.3800889849662781,-0.9174846410751343,0.07357315457240661,0.04719455358004919,0.15319635631025302,0.9843223582035352,0.07058437913656235,0.020561547949910164,0.33337947726249695,-0.012361980974674225,-0.02144739031791687,-0.004197418689727783
2025-09-20T01:56:43Z,0.07051175276755622,0.16206200355177494,0.3093324340323359,-0.11951632797718048,-0.3808443546295166,-0.9168824553489685,0.07451421401974197,0.04717498255731217,0.15626847168729416,0.9837694036887575,0.06540348380804062,0.006544382311403751,0.2977610230445862,-0.01170426607131958,-0.020613759756088257,-0.006127476692199707
2025-09-20T01:56:43Z,0.06973739900113707,0.163962414280369,0.3148886896048792,-0.12153515964746475,-0.38155463337898254,-0.9163215756416321,0.07537961709453578,0.04714682373020021,0.15899257951526669,0.9832681872858247,0.0586840845644474,0.00331913772970438,0.2610931992530823,-0.009159818291664124,-0.02107393741607666,-0.009680867195129395
2025-09-20T01:56:43Z,0.06895017978985529,0.1656211882375438,0.31965240795941585,-0.12337447702884674,-0.38218414783477783,-0.9158133268356323,0.07614652974042586,0.04706849983317139,0.161321761323785,0.9828333914796792,0.047617990523576736,-0.001570583786815405,0.2196095734834671,-0.008985713124275208,-0.020560234785079956,-0.011252999305725098
2025-09-20T01:56:43Z,0.06817515315469959,0.1669636149725285,0.3236515509640323,-0.1250178962945938,-0.38266289234161377,-0.9153904318809509,0.07677560783563393,0.04694576120386818,0.1632707199073866,0.9824684345261022,0.03509146347641945,-0.0007917751208879054,0.1812465637922287,-0.009654238820075989,-0.018286406993865967,-0.010743975639343262
2025-09-20T01:56:43Z,0.06741780876045804,0.16803536179050677,0.3270333331506744,-0.12649643421173096,-0.383007287979126,-0.9150432348251343,0.07728538782874193,0.04678897168795309,0.1649131460630535,0.9821615543150988,0.02382712811231613,-0.00581125495955348,0.154936283826828,-0.01069726049900055,-0.01455909013748169,-0.00865638256072998
2025-09-20T01:56:43Z,0.06674915145527639,0.1687929924192249,0.3299397807796286,-0.1277771145105362,-0.3831532299518585,-0.9148041605949402,0.07764523424134406,0.046633853955500855,0.16632164046312883,0.9819030178764234,0.009927375242114067,-0.01009662076830864,0.13730669021606445,-0.01066608726978302,-0.011576354503631592,-0.008015930652618408
2025-09-20T01:56:43Z,0.06611679989129021,0.1692784246629939,0.33244518156109054,-0.12892650067806244,-0.3831259310245514,-0.9146543145179749,0.07787822346131333,0.046460017913751026,0.1675314918924683,0.9816871289525908,0.001049635000526905,-0.010086562484502792,0.1105271503329277,-0.00844399631023407,-0.015781670808792114,-0.009992897510528564
2025-09-20T01:56:43Z,0.06547720802388272,0.1695648562313208,0.3345111313920482,-0.12997843325138092,-0.38299933075904846,-0.9145584106445312,0.07802479370198735,0.046249912746698124,0.16852316787601784,0.9815155613114449,-0.00857094582170248,-0.01148142945021391,0.09180314838886261,-0.00948423147201538,-0.013514548540115356,-0.00871586799621582
