timestamp,attitude_roll,attitude_pitch,attitude_yaw,gravity_x,gravity_y,gravity_z,quaternion_x,quaternion_y,quaternion_z,quaternion_w,rotation_rate_x,rotation_rate_y,rotation_rate_z,user_acceleration_x,user_acceleration_y,user_acceleration_z
2025-09-20T02:23:43Z,0.001812988056780704,-0.012150017290131022,0.0058100921984702405,-0.16378739476203918,-0.3509070873260498,-0.9219750165939331,-0.00607757648226558,0.0008888253095472606,0.0028994803027850577,0.999976936030515,0.0008999289711937308,0.006740711163729429,0.00842759758234024,0.0013425201177597046,-0.010742515325546265,-0.01203685998916626
2025-09-20T02:23:43Z,0.0019473010108056626,-0.012173077589179864,0.0058382803187731975,-0.1636737436056137,-0.3508811891078949,-0.9220050573348999,-0.006089314578688299,0.0009558608544427517,0.0029131544681724048,0.9999767570296236,-0.0014697132864966989,0.001890209037810564,-0.0034372564405202866,0.001584365963935852,-0.01237139105796814,-0.012005031108856201
2025-09-20T02:23:43Z,0.0019825161424742994,-0.012248187912543687,0.0056697289380135095,-0.16358019411563873,-0.3508398234844208,-0.9220373630523682,-0.006126838027076261,0.0009738744926856399,0.00282873559853327,0.9999767650067082,-0.007212918717414141,0.0011224111076444387,-0.015553461387753487,0.0032861679792404175,-0.014009594917297363,-0.012669146060943604
2025-09-20T02:23:43Z,0.0019466489201167135,-0.012407396819500845,0.005237785290187148,-0.1634567379951477,-0.35076451301574707,-0.9220879077911377,-0.006206183160257522,0.0009570555160210954,0.002612799771056417,0.9999769061463679,-0.007968345656991005,-0.005539580248296261,-0.022600082680583,0.0022951066493988037,-0.012617290019989014,-0.010278940200805664
2025-09-20T02:23:43Z,0.0017580127676154907,-0.012484018508842882,0.004711344027140993,-0.16343992948532104,-0.35078078508377075,-0.9220846891403198,-0.006244019659199565,0.0008642827040276369,0.002350136341839815,0.9999773610162195,-0.0010451069101691246,-0.021461576223373413,-0.022052833810448647,2.396106719970703e-05,-0.01011645793914795,-0.004590213298797607
2025-09-20T02:23:43Z,0.0012567899570194432,-0.01248704447039487,0.0044172672809643385,-0.16379553079605103,-0.35082653164863586,-0.922004222869873,-0.006244853125866541,0.0006145916115255076,0.002204665015488109,0.9999778736757741,-0.0025391008239239454,-0.01848239079117775,-0.004050856456160545,0.0006147176027297974,-0.006131798028945923,-0.00776904821395874
2025-09-20T02:23:43Z,0.0010132828052140002,-0.012566300105807952,0.004359169727226888,-0.16399896144866943,-0.3507630228996277,-0.9219921827316284,-0.006284197392403998,0.0004929356332152401,0.002176356617474249,0.9999777380493134,-0.008518500253558159,0.005297664552927017,0.0027436716482043266,0.0041131675243377686,-0.005335003137588501,-0.01669454574584961
2025-09-20T02:23:43Z,0.0014563254505134374,-0.01287816800640626,0.004433254244754849,-0.16361713409423828,-0.35046327114105225,-0.9221740365028381,-0.006440636444891078,0.0007138728885738818,0.002211890258503669,0.9999764905617533,-0.022287745028734207,0.02819383703172207,0.011008461937308311,0.0046749114990234375,-0.0028311610221862793,-0.019568443298339844
2025-09-20T02:23:43Z,0.0020600257926779828,-0.013411783504225616,0.004807066000728234,-0.16319546103477478,-0.3499096632003784,-0.9224589467048645,-0.006708293945672899,0.0010138688587534599,0.0023965682049979175,0.9999741478271614,-0.03280650079250336,0.026130445301532745,0.024123914539813995,-0.0018165111541748047,0.0009954869747161865,-0.013280212879180908
2025-09-20T02:23:43Z,0.0022480960963636594,-0.013824768910476662,0.005287824547107704,-0.16319577395915985,-0.34944936633110046,-0.9226333498954773,-0.006915272702939011,0.0011057414709177936,0.0026360746016306394,0.9999720016891512,-0.021461080759763718,0.016752218827605247,0.02056276425719261,-0.001913905143737793,-0.0035815834999084473,-0.012351274490356445
2025-09-20T02:23:43Z,0.002436351249826242,-0.014237674114849106,0.005768655462068157,-0.16319584846496582,-0.3489890396595001,-0.922807514667511,-0.0071222554863100435,0.0011976065356414476,0.0028755765949208616,0.9999697948700448,-0.010115657933056355,0.00737399235367775,0.017001613974571228,-0.002011507749557495,-0.008158713579177856,-0.011422574520111084
2025-09-20T02:23:43Z,0.0026248276981097577,-0.014650505963318933,0.006249585752654906,-0.1631956547498703,-0.3485286235809326,-0.9229815602302551,-0.007329246266690076,0.0012894822108220625,0.0031150876203920345,0.9999674621934015,0.001229763962328434,-0.002004235051572323,0.013440465554594994,-0.0021093785762786865,-0.012735903263092041,-0.010494053363800049
2025-09-20T02:23:43Z,0.002616297758906734,-0.014618855596015693,0.006579349147701652,-0.16332294046878815,-0.3485032021999359,-0.9229686856269836,-0.007313620043953375,0.0012840611013517512,0.0032800162119212026,0.9999670679209192,0.00966645684093237,-0.0032179877161979675,0.008838818408548832,-0.0021476447582244873,-0.011739730834960938,-0.012079894542694092
2025-09-20T02:23:43Z,0.0026107004334432757,-0.014431508653684548,0.00668989234414917,-0.16336828470230103,-0.3486576974391937,-0.9229022860527039,-0.007220011380585077,0.0012811725230606787,0.0033354310469132617,0.9999675544126407,0.010296487249433994,0.000518666347488761,0.001836034469306469,0.0006249994039535522,-0.010777562856674194,-0.012687206268310547
2025-09-20T02:23:44Z,0.0026404880674415557,-0.01425136544277049,0.006695843966238012,-0.16334310173988342,-0.34882286190986633,-0.9228442907333374,-0.007129996305896311,0.0012963467845756682,0.0033384203468396784,0.999968157399719,0.005288279615342617,0.004438810050487518,-0.003308303188532591,0.0010216832160949707,-0.010053485631942749,-0.01221388578414917
2025-09-20T02:23:44Z,0.002634644442569035,-0.014184319906877137,0.006574608363339276,-0.1633046716451645,-0.3489047884941101,-0.9228201508522034,-0.0070963864423506514,0.0012939677804705923,0.0032778702512298685,0.9999685972853645,-0.000628334004431963,0.00020494265481829643,-0.007040985394269228,0.002014636993408203,-0.008917421102523804,-0.01182931661605835
2025-09-20T02:23:44Z,0.002603612466734871,-0.014284674403495321,0.0063511979534294,-0.16325236856937408,-0.34884926676750183,-0.9228503704071045,-0.007146368169867949,0.0012790851243372364,0.0031662120773113768,0.9999686537075337,-0.008057958446443081,-0.006317612715065479,-0.012163542211055756,0.001078575849533081,-0.008619815111160278,-0.01090162992477417
2025-09-20T02:23:44Z,0.0024789779601413248,-0.014491541812204316,0.006159788403974858,-0.16329792141914368,-0.3486901521682739,-0.9229024648666382,-0.007249484670177093,0.001217134239890267,0.0030708250664963723,0.9999683063212854,-0.011712254025042057,-0.005295353010296822,-0.004097266122698784,-0.0004794597625732422,-0.004931002855300903,-0.0099104642868042
2025-09-20T02:23:44Z,0.0022644534161273214,-0.014720097480356563,0.006016805889632596,-0.16344395279884338,-0.3485029637813568,-0.922947347164154,-0.007363350151482976,0.0011100489007867614,0.002999981781089437,0.9999678027809544,-0.00959942676126957,-0.004172571003437042,-0.005514925345778465,-0.0001776367425918579,-0.009540915489196777,-0.011471450328826904
2025-09-20T02:23:44Z,0.0023458890308399225,-0.014899500112473955,0.005920635096175399,-0.16333383321762085,-0.34835338592529297,-0.9230232834815979,-0.00745311518287846,0.0011508531273606852,0.0029514908681909898,0.9999672585553034,-0.0051964218728244305,0.00238177552819252,-0.004388556815683842,0.0027833133935928345,-0.010471940040588379,-0.01567530632019043
2025-09-20T02:23:44Z,0.0025075966591567023,-0.014921355422774202,0.005818567258317291,-0.16314759850502014,-0.3483501076698303,-0.9230574369430542,-0.007464218189382798,0.0012320527557645156,0.0028998420527149397,0.9999672348917422,-0.0019227529410272837,0.006339978892356157,0.0002742381766438484,0.000306054949760437,-0.006309390068054199,-0.012953698635101318
2025-09-20T02:23:44Z,0.0025448960483244005,-0.014961188901294775,0.00592616370290049,-0.1631520837545395,-0.34829553961753845,-0.9230772852897644,-0.007484255717582645,0.0012502410835194468,0.0029534735491983737,0.9999668928520825,-0.0020398772321641445,0.003188974456861615,0.0068444483913481236,-0.0013033896684646606,-0.00497010350227356,-0.011053323745727539
2025-09-20T02:23:44Z,0.002601198173215734,-0.014964687347986503,0.006090055929093538,-0.16315944492816925,-0.3482652008533478,-0.9230874180793762,-0.0074861928149073595,0.001277772560568289,0.00303520394692638,0.9999665910550201,0.0017447038553655148,0.0022321047727018595,0.006615223363041878,0.00020188093185424805,-0.008422285318374634,-0.012709319591522217
2025-09-20T02:23:44Z,0.002613797397370445,-0.014890400368290235,0.006204120503674419,-0.16318917274475098,-0.3483148217201233,-0.9230633974075317,-0.0074491431079881055,0.001283760616137536,0.0030922366400893122,0.9999666593685693,0.006150408647954464,0.0016245193546637893,0.005303587298840284,0.0009653270244598389,-0.009674012660980225,-0.012206614017486572
2025-09-20T02:23:44Z,0.002710085015453744,-0.014724641269216278,0.006259993012996009,-0.16312067210674286,-0.34845849871635437,-0.9230213165283203,-0.007366452338829015,0.0013319549402047441,0.0031199275292358815,0.9999671290730412,0.005956888664513826,0.0018170555122196674,0.0023839890491217375,0.0013372600078582764,-0.009279221296310425,-0.0126534104347229
2025-09-20T02:23:44Z,0.002779991353990873,-0.014584121790090231,0.006284176468581296,-0.16306504607200623,-0.3485841453075409,-0.922983705997467,-0.007296320376342828,0.0013670393370213136,0.003131860607487182,0.9999675725126258,0.006068704184144735,0.004492823034524918,-0.0028878648299723864,0.0019242018461227417,-0.009933322668075562,-0.011955559253692627
2025-09-20T02:23:44Z,0.002818630056891551,-0.014486674037638998,0.0061848675410931956,-0.16299352049827576,-0.3486904799938202,-0.9229561686515808,-0.007247589733479694,0.0013868715278535838,0.0030821365562782536,0.9999680532623447,0.0031645395793020725,-0.00036552082747220993,-0.008367660455405712,0.0007864236831665039,-0.00935375690460205,-0.010369837284088135
2025-09-20T02:23:44Z,0.0027393799869574287,-0.01451371112978431,0.0059621238989714526,-0.16298601031303406,-0.34870246052742004,-0.9229529500007629,-0.0072608353588308515,0.0013480144347981422,0.0029710365424599175,0.9999683831742862,0.00018773041665554047,-0.0034094485454261303,-0.007301329635083675,0.0008450448513031006,-0.008459120988845825,-0.0102308988571167
2025-09-20T02:23:44Z,0.0026600998622372356,-0.014540678777739798,0.005739365365256371,-0.16297850012779236,-0.3487144112586975,-0.9229497909545898,-0.007274055240793545,0.0013091454970300216,0.00285993040268137,0.9999686584078701,-0.0027890789788216352,-0.006453376263380051,-0.006234998814761639,0.0009036511182785034,-0.007564455270767212,-0.010091900825500488
2025-09-20T02:23:44Z,0.002580798991810232,-0.014567682630778232,0.005516642417678943,-0.16297101974487305,-0.3487263321876526,-0.922946572303772,-0.007287301895353681,0.001270268963956617,0.0027488431224127574,0.9999689276755157,-0.005765888374298811,-0.009497303515672684,-0.005168668460100889,0.0009623020887374878,-0.006669878959655762,-0.009952962398529053
2025-09-20T02:23:44Z,0.0023498248510035982,-0.014658613427515805,0.005430961647812792,-0.16315308213233948,-0.34865662455558777,-0.9229407906532288,-0.007332398864682929,0.0011549738133182,0.002706791307204092,0.9999688566096868,-0.002636132063344121,-0.011918422766029835,-0.000221234280616045,0.0002687722444534302,-0.006995052099227905,-0.010779917240142822
2025-09-20T02:23:44Z,0.002177335895945097,-0.014678450173241167,0.005410556346106337,-0.16330486536026,-0.34864169359207153,-0.9229195713996887,-0.007342072649334046,0.0010687799404694232,0.0026972103849807394,0.9999688938926604,-0.0004619276151061058,-0.008993413299322128,0.0023087121080607176,0.0008034110069274902,-0.008759498596191406,-0.013848721981048584
2025-09-20T02:23:44Z,0.0020407799515831694,-0.014648611574859345,0.0055198248719674605,-0.16347049176692963,-0.3486511707305908,-0.9228866696357727,-0.007327024184499105,0.0010001442497527926,0.0027523597229540454,0.9999689394608973,0.0013916126918047667,-0.004158919211477041,0.005713343620300293,0.0005242377519607544,-0.009021162986755371,-0.013128340244293213
2025-09-20T02:23:44Z,0.0019733769474184824,-0.01460860181513545,0.005700000944456215,-0.1635979413986206,-0.3486582040786743,-0.9228613972663879,-0.0073070149740427125,0.000965840979792984,0.0028427123225444615,0.9999687616658505,0.0014545487938448787,-0.0023410709109157324,0.007389172911643982,0.0006525367498397827,-0.007872194051742554,-0.012959599494934082
2025-09-20T02:23:44Z,0.0020164100720798726,-0.014600471928809342,0.005875243811851612,-0.1636216938495636,-0.3486367166042328,-0.9228653311729431,-0.007303097748777897,0.0009867285741201532,0.0029301779514993966,0.9999685255324289,-0.001415990642271936,0.0007849300745874643,0.006771797314286232,0.0012121647596359253,-0.008450418710708618,-0.012153387069702148
2025-09-20T02:23:44Z,0.0019932065564676645,-0.014677547937485153,0.0060034179010333135,-0.16368944942951202,-0.3485443890094757,-0.9228881597518921,-0.00734166318486675,0.0009745432114004893,0.0029943085237311633,0.9999680413796694,-0.003546362277120352,-0.002103246748447418,0.004832433070987463,0.0010241270065307617,-0.009130924940109253,-0.011508822441101074
2025-09-20T02:23:44Z,0.0019496335592948484,-0.014728097169606163,0.0059966603987430915,-0.16372717916965485,-0.3484988510608673,-0.9228986501693726,-0.0073668686213692,0.0009527062619462252,0.0029910646683394384,0.999967875269153,-0.0036314220633357763,-0.004487212747335434,-0.002975277602672577,0.0013779401779174805,-0.011146485805511475,-0.01071023941040039
2025-09-20T02:23:44Z,0.0016796905459729374,-0.014863855543888634,0.00591732577826261,-0.16394749283790588,-0.3483867347240448,-0.9229018688201904,-0.007434309366716612,0.0008178300210406917,0.0029523344000446645,0.999967617003228,-0.00265174126252532,-0.014578230679035187,-0.006354570388793945,6.689131259918213e-05,-0.010114967823028564,-0.008472263813018799
2025-09-20T02:23:44Z,0.001409981111555403,-0.014931727670635851,0.005722672282149827,-0.16412588953971863,-0.34835630655288696,-0.9228816628456116,-0.007467779712838044,0.0006836058932245413,0.00285598867808324,0.9999677372820985,-0.0012879831483587623,-0.014569071121513844,-0.010179134085774422,0.0008105039596557617,-0.011127889156341553,-0.011745810508728027
2025-09-20T02:23:44Z,0.0011030521582597761,-0.01495405085882253,0.005582611032884248,-0.16435842216014862,-0.3483588993549347,-0.9228392839431763,-0.007478465379336104,0.0005306380777920578,0.0027870998899507094,0.9999679508109255,-0.00025678297970443964,-0.010093657299876213,-0.005205886904150248,0.0006886571645736694,-0.008104771375656128,-0.012792468070983887
2025-09-20T02:23:44Z,0.0008739420899013502,-0.014888757366936517,0.005496050537695653,-0.16453851759433746,-0.3484334349632263,-0.9227790832519531,-0.007445482258944931,0.00041650016817941564,0.0027446926069020923,0.9999683772815787,-0.0006188526749610901,-0.014722045511007309,0.0002575390972197056,-0.0009567588567733765,-0.007061511278152466,-0.010216891765594482
2025-09-20T02:23:44Z,0.0007433329494607791,-0.01488625650609038,0.005731164648052299,-0.16474418342113495,-0.348396897315979,-0.9227561950683594,-0.007444093737460034,0.00035032598721716237,0.002862732608405892,0.9999680965780491,-9.7104930318892e-06,0.012369334697723389,0.013090943917632103,0.003108084201812744,-0.007654458284378052,-0.01821589469909668
2025-09-20T02:23:44Z,0.0013181090555524778,-0.01489476204762864,0.005923572206011091,-0.16428343951702118,-0.3483572006225586,-0.9228532910346985,-0.007449230110959762,0.0006369760272493761,0.0029567909464872895,0.9999676408251384,-0.005122668109834194,0.042554426938295364,0.009570503607392311,0.005139261484146118,-0.010217458009719849,-0.022542715072631836
2025-09-20T02:23:44Z,0.002291884166097917,-0.015123598289054187,0.006104478940596845,-0.16345003247261047,-0.3481161296367645,-0.923092246055603,-0.007565184800921721,0.0011228236271780493,0.003043480334050646,0.9999660786451345,-0.015175309963524342,0.045972611755132675,0.010109750553965569,0.003146618604660034,-0.006230354309082031,-0.016562700271606445
2025-09-20T02:23:44Z,0.002990374806382205,-0.015472060201080096,0.006374846829628371,-0.16290274262428284,-0.34774982929229736,-0.9233270287513733,-0.007740670587683487,0.0014704768133418811,0.003175752421489921,0.9999639228990653,-0.018049558624625206,0.02256837859749794,0.01567102037370205,-0.0022840499877929688,-0.004341006278991699,-0.007165789604187012
2025-09-20T02:23:44Z,0.00315593932418302,-0.015859509059834895,0.006573915770586202,-0.16282151639461517,-0.347359299659729,-0.9234883189201355,-0.007934804872176468,0.0015518463812438173,0.003274331664157107,0.9999620029764817,-0.01652979478240013,0.00039733946323394775,0.006148532032966614,-0.0020945370197296143,-0.008515685796737671,-0.00793147087097168
2025-09-20T02:23:44Z,0.003164724099069182,-0.01609836382099396,0.0066406774355034625,-0.16283731162548065,-0.347127765417099,-0.9235725998878479,-0.008054293894505179,0.001555575684339327,0.0033074842098729717,0.9999609394823362,-0.0025323471054434776,-0.008515649475157261,-0.001070600003004074,0.0009705275297164917,-0.010534316301345825,-0.009693026542663574
2025-09-20T02:23:44Z,0.0028901184004319442,-0.016057825773494825,0.00662235299610986,-0.16308434307575226,-0.3471682369709015,-0.9235137701034546,-0.00803355829562606,0.0014184193093324255,0.0032994579537999106,0.9999613574557014,0.008725736290216446,-0.014679224230349064,-0.00017084565479308367,-0.0003006458282470703,-0.008645683526992798,-0.009678244590759277
2025-09-20T02:23:44Z,0.0025439968085492954,-0.015751899314557272,0.00672137484925177,-0.1634400635957718,-0.3474341332912445,-0.9233508706092834,-0.007880092237828209,0.0012454831981389542,0.0033505562020653343,0.9999625366203141,0.013144239783287048,-0.010940488427877426,0.0036174552515149117,-0.00027814507484436035,-0.00521397590637207,-0.011531591415405273
2025-09-20T02:23:44Z,0.0023208102934612,-0.015492353057328436,0.00684866796588919,-0.1636924296617508,-0.3476525843143463,-0.9232239723205566,-0.007750021793424653,0.0011338380911068457,0.0034152336367984245,0.9999635094054283,0.012991062365472317,-0.006929702591150999,0.007792976219207048,0.001296505331993103,-0.004969477653503418,-0.013844668865203857
2025-09-20T02:23:44Z,0.0022822103279579644,-0.015268420118352907,0.007019165874353547,-0.16378994286060333,-0.34783095121383667,-0.9231394529342651,-0.007638088587425239,0.0011142720747991362,0.003500759876753613,0.9999640818189883,0.007514877710491419,0.0007289205677807331,0.005318053066730499,0.0014693886041641235,-0.007402509450912476,-0.01541203260421753
2025-09-20T02:23:44Z,0.0023628985718786846,-0.015163015440513739,0.007083423881096542,-0.16373878717422485,-0.3479175567626953,-0.9231159090995789,-0.007585566381638948,0.001154556449651833,0.0035326432126466674,0.9999643346778093,0.0006799600087106228,6.595405284315348e-05,0.0004811869002878666,0.0012131333351135254,-0.008260369300842285,-0.014995574951171875
2025-09-20T02:23:44Z,0.0022472049876487744,-0.01519993895145622,0.007111916873705842,-0.16385586559772491,-0.34787875413894653,-0.923109769821167,-0.007603838849649016,0.0010965378663144872,0.0035473068078148893,0.999964194211899,-0.0004413970746099949,-0.006199032533913851,-0.0015362892299890518,-0.002822279930114746,-0.008019179105758667,-0.010918021202087402
2025-09-20T02:23:44Z,0.00207526391391565,-0.015211415738555742,0.007208525543314738,-0.16404953598976135,-0.34785211086273193,-0.9230853915214539,-0.007609320954842696,0.001010182404128756,0.0035962570440324928,0.9999640549897278,-0.0004493228334467858,-0.014901451766490936,0.006106521002948284,-0.002433091402053833,-0.007517904043197632,-0.009658753871917725
2025-09-20T02:23:44Z,0.0018604763895215346,-0.015141994983721409,0.0071442232472372835,-0.1642245650291443,-0.3479268252849579,-0.9230260848999023,-0.007574196633761847,0.0009031613712534922,0.0035649574982296343,0.9999645216831591,0.004248208366334438,0.0011197607964277267,-0.006081601604819298,0.002075687050819397,-0.014783740043640137,-0.015582799911499023
2025-09-20T02:23:44Z,0.0019460603650906215,-0.01492856410166686,0.006941177875335723,-0.16407224535942078,-0.34815743565559387,-0.9229662418365479,-0.007467541326855997,0.0009470919355200725,0.003463220873096427,0.9999656466299945,0.012485713697969913,0.008026257157325745,-0.01122523844242096,0.0022528618574142456,-0.014154762029647827,-0.014787852764129639
2025-09-20T02:23:44Z,0.002099452423180218,-0.014660334880493247,0.00675098876687914,-0.16386203467845917,-0.34843647480010986,-0.9228982925415039,-0.007333599262605071,0.0010249491832062532,0.003367700884226579,0.9999669097703111,0.010942978784441948,0.0034671537578105927,-0.007079103495925665,-0.0009063631296157837,-0.007488369941711426,-0.010260403156280518
2025-09-20T02:23:44Z,0.002077394060162099,-0.01447824692891047,0.006664532530427514,-0.16385123133659363,-0.3486187756061554,-0.9228313565254211,-0.007242477213071664,0.0010145414357664627,0.003324651819940708,0.9999677376497013,0.005947816651314497,-0.000550395343452692,0.0010324097238481045,-0.0007998496294021606,-0.004442125558853149,-0.009753644466400146
2025-09-20T02:23:44Z,0.002067289368942534,-0.014342506324983986,0.006618362639852805,-0.16384395956993103,-0.34875166416168213,-0.9227824211120605,-0.0071745687997558545,0.0010098815148872876,0.0033016758976979967,0.9999683330530217,0.0032562632113695145,0.002260923618450761,-0.0016940960194915533,0.001998692750930786,-0.00837370753288269,-0.011604249477386475
2025-09-20T02:23:44Z,0.0021918739797158414,-0.014285156676334829,0.006591850567949277,-0.16371944546699524,-0.34880897402763367,-0.9227828979492188,-0.0071460862569101445,0.0010723616731555497,0.003288005425668957,0.9999685266686353,0.001899544964544475,0.004028989002108574,-0.003569019492715597,0.002025693655014038,-0.009930640459060669,-0.011816322803497314
2025-09-20T02:23:44Z,0.0023829317058468758,-0.014189789583245935,0.006486422735834427,-0.16350506246089935,-0.34891441464424133,-0.9227810502052307,-0.007098656589647975,0.0011684192604491839,0.003234668364412813,0.9999689462642236,0.001959116430953145,0.007950549945235252,-0.002241583541035652,0.0013455599546432495,-0.008631646633148193,-0.012018024921417236
2025-09-20T02:23:44Z,0.0025478693461020298,-0.01417546905740626,0.0064883064012068664,-0.1633535474538803,-0.3489273190498352,-0.9228029847145081,-0.0070917645845821695,0.0012509021337254792,0.0032350340796224878,0.9999688772346893,8.198735304176807e-05,0.005581747740507126,0.002627740614116192,0.0015790611505508423,-0.007894635200500488,-0.01260983943939209
2025-09-20T02:23:44Z,0.0026345851542254727,-0.014156368755195364,0.0065938966699129456,-0.16331176459789276,-0.34892743825912476,-0.9228103160858154,-0.00708242320532041,0.001293915819707235,0.0032875328258814914,0.999968732558103,0.0015985878417268395,0.0034564982634037733,0.0031853197142481804,0.0016278326511383057,-0.00882500410079956,-0.012153804302215576
2025-09-20T02:23:44Z,0.0027213017969072903,-0.014137230429801535,0.0066994822816834314,-0.1632699817419052,-0.3489276170730591,-0.9228176474571228,-0.007073067311323876,0.0013369309857366798,0.00334003005529221,0.9999685905036741,0.003115188330411911,0.001331248553469777,0.0037428985815495253,0.0016765743494033813,-0.009755373001098633,-0.011697709560394287
2025-09-20T02:23:45Z,0.002807994110158812,-0.014118065485919006,0.006805073661304839,-0.16322818398475647,-0.34892770648002625,-0.922825038433075,-0.007063703437954265,0.001379935159089924,0.0033925314759044966,0.9999683282291624,0.004631788469851017,-0.0007940011564642191,0.00430047744885087,0.0017253011465072632,-0.01068580150604248,-0.011241674423217773
2025-09-20T02:23:45Z,0.002759630206373704,-0.014077789244439955,0.006991450965415827,-0.16334031522274017,-0.34893396496772766,-0.9228028059005737,-0.007043610063513812,0.001355166277003978,0.0034859161812803466,0.9999682062901608,0.0020934673957526684,-0.008743361569941044,0.008853688836097717,0.0019878894090652466,-0.007524311542510986,-0.01039731502532959
2025-09-20T02:23:45Z,0.002549351311507982,-0.01404420123399556,0.007173219641390398,-0.1636001616716385,-0.3489347994327545,-0.9227564930915833,-0.007026563527032356,0.0012494504059377268,0.003577559946714183,0.9999681546460152,-0.002680176869034767,-0.011255358345806599,0.010377399623394012,0.0007414966821670532,-0.007232695817947388,-0.009368538856506348
2025-09-20T02:23:45Z,0.002298453108815517,-0.014096267400653426,0.007469667259060381,-0.16393890976905823,-0.34883758425712585,-0.9227331280708313,-0.0070523133673030345,0.001122866398218839,0.0037266298218522577,0.99996758885781,-0.003911016974598169,-0.01015432644635439,0.014296735636889935,0.0022481828927993774,-0.009249001741409302,-0.012297332286834717
2025-09-20T02:23:45Z,0.0020896666380981,-0.014108651093067935,0.007797533893406685,-0.16425016522407532,-0.34877172112464905,-0.9227026700973511,-0.007058282638282244,0.001017296280086991,0.003891287246714992,0.9999670558144321,-0.0022131367586553097,-0.010378455743193626,0.01503125112503767,0.0015232712030410767,-0.007269561290740967,-0.0119667649269104
2025-09-20T02:23:45Z,0.0019938400784695466,-0.01415546717662555,0.008110870329749355,-0.16445189714431763,-0.348676472902298,-0.9227027297019958,-0.007081655058824361,0.0009681836786912651,0.004048264327541225,0.999966339201907,-0.0014012311585247517,-0.00517084077000618,0.015380652621388435,0.0026807934045791626,-0.009240657091140747,-0.013690173625946045
2025-09-20T02:23:45Z,0.0019476794362781632,-0.014159360722048243,0.008449065439130885,-0.16461680829524994,-0.3486166000366211,-0.9226959347724915,-0.007083668138010723,0.0009438984244951833,0.004217517658545519,0.9999656349080702,-0.004329785704612732,-0.0030474388040602207,0.013127579353749752,0.0013538450002670288,-0.008566349744796753,-0.012101948261260986
2025-09-20T02:23:45Z,0.0018592768333307015,-0.014206115993668604,0.008762814031334748,-0.16481180489063263,-0.34852126240730286,-0.922697126865387,-0.007106999642851805,0.0008984848494892896,0.004374677183841846,0.9999648264779026,-0.004612773656845093,-0.006872860714793205,0.01152792014181614,0.0011944323778152466,-0.007892906665802002,-0.011361837387084961
2025-09-20T02:23:45Z,0.0017384571319321032,-0.014298856255010912,0.008941252473771854,-0.1649877429008484,-0.34840598702430725,-0.9227092266082764,-0.007153178595821693,0.0008372354861173217,0.004464280803599129,0.999964150627062,-0.0030531715601682663,-0.006936081685125828,0.00637930678203702,0.0017089694738388062,-0.010639071464538574,-0.011219263076782227
2025-09-20T02:23:45Z,0.0014909075565722038,-0.014270024516772773,0.009037236779108533,-0.16525086760520935,-0.34841659665107727,-0.9226581454277039,-0.007138244969761118,0.0007131870961293139,0.004513167860263273,0.9999641185564931,0.0006105729844421148,-0.007986579090356827,0.0038310347590595484,0.0020785480737686157,-0.011670291423797607,-0.012900829315185547
2025-09-20T02:23:45Z,0.0012433842882318327,-0.014241247319256507,0.009133240991327389,-0.16551396250724792,-0.3484271168708801,-0.9226070046424866,-0.007123326580058815,0.0005891530519070729,0.004562061068985557,0.9999640816068948,0.004274317063391209,-0.009037075564265251,0.001282762736082077,0.0024481266736984253,-0.01270151138305664,-0.014582395553588867
2025-09-20T02:23:45Z,0.001027620399235994,-0.01408010293581359,0.00916118499709216,-0.16572318971157074,-0.34857112169265747,-0.9225150346755981,-0.00704227169235949,0.0004815448112478516,0.0045768449708517255,0.9999646590729196,0.009189661592245102,-0.01127269770950079,0.004054693970829248,0.0007461011409759521,-0.010002434253692627,-0.01090162992477417
2025-09-20T02:23:45Z,0.0006848761660918281,-0.013878540493991107,0.00931361977643955,-0.16609452664852142,-0.3487316370010376,-0.9223875999450684,-0.006940732954845874,0.00031011161397931266,0.004654304052051618,0.9999651162780687,0.0063607823103666306,-0.012819390743970871,0.013055192306637764,-0.0008336454629898071,-0.006324827671051025,-0.0105055570602417
2025-09-20T02:23:45Z,0.0008282449485625133,-0.013692950675219598,0.009642076785485195,-0.1660810261964798,-0.3488479554653168,-0.9223460555076599,-0.0068483382866708666,0.00038110121874489043,0.004818071188483245,0.9999648494191984,0.005202172324061394,0.016050349920988083,0.01202545128762722,0.004060834646224976,-0.01051187515258789,-0.01893693208694458
2025-09-20T02:23:45Z,0.0013859967749651888,-0.013572950694706066,0.009840590181841705,-0.16563837230205536,-0.34892547130584717,-0.9223963022232056,-0.006789749416374722,0.0006595829470268307,0.004915458027728487,0.9999646102005922,-0.000285543967038393,0.040913257747888565,0.009309997782111168,0.004863962531089783,-0.00990384817123413,-0.021026551723480225
2025-09-20T02:23:45Z,0.002172561208757636,-0.013745817586647622,0.010052958319705764,-0.1649894267320633,-0.3487306237220764,-0.9225862622261047,-0.006878223856235685,0.0010516949223824006,0.005018870584756034,0.999963191566215,-0.01118866540491581,0.03436613827943802,0.014331908896565437,-0.0009912848472595215,-0.00544285774230957,-0.012854814529418945
2025-09-20T02:23:45Z,0.0027248968184544102,-0.014067236481092904,0.010349396213599317,-0.1645866334438324,-0.34838467836380005,-0.9227889180183411,-0.007040509667829007,0.001325999703016173,0.005164959528583156,0.9999609875845012,-0.017655903473496437,0.01598571427166462,0.01216467097401619,-0.0024014562368392944,-0.004772275686264038,-0.008123397827148438
2025-09-20T02:23:45Z,0.002966007887066734,-0.01440769610094557,0.010516584678997644,-0.16442419588565826,-0.34804269671440125,-0.9229468703269958,-0.007211476087409045,0.0014450650283494373,0.005247442816806963,0.9999591804199002,-0.013190295547246933,0.004481791518628597,0.00477188965305686,-0.0001429915428161621,-0.009912341833114624,-0.008156418800354004
2025-09-20T02:23:45Z,0.0029779663367608417,-0.014541967671800408,0.010560897915957192,-0.16442900896072388,-0.34791141748428345,-0.9229955077171326,-0.007278672810197931,0.0014505290418953068,0.005269453018275669,0.9999585444547374,-5.766190588474274e-05,-0.005336245521903038,-0.0029056351631879807,1.379847526550293e-05,-0.012845098972320557,-0.006731092929840088
2025-09-20T02:23:45Z,0.002779669671256356,-0.014378433159469598,0.01047440500424373,-0.16458095610141754,-0.348076730966568,-0.9229061007499695,-0.007196327866503402,0.001352128584397912,0.005227046657899232,0.9999595125925501,0.009282106533646584,-0.01226117741316557,-0.003108981065452099,-0.00011718273162841797,-0.009984463453292847,-0.008149445056915283
2025-09-20T02:23:45Z,0.0024913718316943918,-0.01421707629410489,0.010438235866312023,-0.16483408212661743,-0.34823161363601685,-0.9228025078773499,-0.007114877284897322,0.0012085373898278679,0.005210103626218279,0.999960364801639,0.00911503192037344,-0.010957330465316772,-0.0017114707734435797,-0.0007650703191757202,-0.006908148527145386,-0.011189281940460205
2025-09-20T02:23:45Z,0.002369872937984754,-0.014113011648361436,0.010433635252387878,-0.1649446338415146,-0.3483283817768097,-0.9227462410926819,-0.0070625276629674395,0.0011480785551615598,0.005208299064390856,0.9999608427661014,0.003624243661761284,-0.005321863107383251,-0.0011373059824109077,-4.5239925384521484e-05,-0.0075435638427734375,-0.013877630233764648
2025-09-20T02:23:45Z,0.0023517514582527765,-0.0141030301313127,0.010352956299681621,-0.1649322211742401,-0.34835106134414673,-0.9227398633956909,-0.007057444002914501,0.0011393289484195176,0.005168031240582972,0.9999610907685317,-0.0005888859741389751,4.671188071370125e-05,-0.004886518232524395,0.0007900446653366089,-0.009293138980865479,-0.01582401990890503
2025-09-20T02:23:45Z,0.002348088150337685,-0.014158754089244403,0.010218176144963455,-0.16488686203956604,-0.34832221269607544,-0.9227588772773743,-0.007085218584183599,0.0011378303610036558,0.005100622855342779,0.9999612675596553,-0.0017406768165528774,-0.002823412651196122,-0.007104665506631136,0.00034931302070617676,-0.009688079357147217,-0.014026999473571777
2025-09-20T02:23:45Z,0.00234442913974247,-0.014214480663110068,0.010083378730070666,-0.16484148800373077,-0.34829333424568176,-0.9227778911590576,-0.007112994663900751,0.0011363377198764272,0.005033205901656486,0.9999614443323787,-0.0028924676589667797,-0.005693537183105946,-0.009322812780737877,-9.141862392425537e-05,-0.010083019733428955,-0.01222991943359375
2025-09-20T02:23:45Z,0.002371443331314362,-0.014262983709360808,0.009920078591053656,-0.16475750505924225,-0.3482758700847626,-0.9227994680404663,-0.0071372191963741645,0.001150304561787391,0.004951433194648008,0.9999616826271968,-0.0005519003607332706,0.0015272889286279678,-0.008649224415421486,0.0018000006675720215,-0.010020434856414795,-0.014691948890686035
2025-09-20T02:23:45Z,0.0024462907572086246,-0.014239348085046698,0.009751904346523555,-0.16462767124176025,-0.3483257293701172,-0.9228038191795349,-0.007125487350135455,0.0011883847366508174,0.004867097132733728,0.999962119419051,0.001542483689263463,0.004962448496371508,-0.008029378019273281,0.0018605142831802368,-0.009695440530776978,-0.01289302110671997
2025-09-20T02:23:45Z,0.002559055079526495,-0.014201433874017148,0.009598858153103356,-0.16446833312511444,-0.3483862280845642,-0.9228094220161438,-0.007106710054818506,0.0012454011822705337,0.00479020005398912,0.9999625601420759,0.0010650043841451406,0.0031535541638731956,-0.004592341370880604,0.0011078119277954102,-0.008792132139205933,-0.010767698287963867
2025-09-20T02:23:45Z,0.002645605840343707,-0.014158793050791504,0.009479487809036851,-0.16434532403945923,-0.34844541549682617,-0.9228089451789856,-0.00708552147327056,0.0012892004767485756,0.0047302389316855225,0.999962846018864,0.0009382698335684836,0.0015781595138832927,-0.0036023424472659826,0.0012454092502593994,-0.007630735635757446,-0.011011838912963867
2025-09-20T02:23:45Z,0.0026958411234410907,-0.014137420756531868,0.009363216134660344,-0.16425694525241852,-0.34848451614379883,-0.9228099584579468,-0.007074878232592841,0.001314779264137925,0.004671942109644507,0.9999631448129767,0.0007407503435388207,0.003743064124137163,-0.0045723216608166695,0.002098381519317627,-0.007801532745361328,-0.012370049953460693
2025-09-20T02:23:45Z,0.0027964895816254905,-0.014100597469970583,0.009235903151685123,-0.16411808133125305,-0.34853968024253845,-0.9228138327598572,-0.0070566155245483705,0.0013656372324279502,0.004607958298513843,0.999963492517246,0.00033891794737428427,0.004105476196855307,-0.004421933088451624,0.002464205026626587,-0.007544487714767456,-0.012683689594268799
2025-09-20T02:23:45Z,0.0029126449716061287,-0.014101503805024862,0.009107230229415045,-0.1639643907546997,-0.3485603630542755,-0.9228333234786987,-0.007057243959951765,0.0014241646186313561,0.004543213204367761,0.9999638034170677,-0.0001891741412691772,0.005845916923135519,-0.005895101465284824,0.0029194653034210205,-0.00888243317604065,-0.012778162956237793
2025-09-20T02:23:45Z,0.0030223714103378087,-0.01409930295172239,0.008960178404268965,-0.16380997002124786,-0.34858691692352295,-0.9228507280349731,-0.007056283979471747,0.0014795496771358933,0.004469304414984065,0.9999640730882976,-3.335988731123507e-05,0.006724528037011623,-0.007964743301272392,0.002575010061264038,-0.010161608457565308,-0.013010621070861816
2025-09-20T02:23:45Z,0.0031005894169011555,-0.014052145518095747,0.00876866086938146,-0.16366858780384064,-0.34866228699684143,-0.922847330570221,-0.00703273556287957,0.001519436639276105,0.004373310476714922,0.9999645849471857,0.0014525502920150757,0.0019885553047060966,-0.009371474385261536,0.0020875781774520874,-0.010115385055541992,-0.011735379695892334
2025-09-20T02:23:45Z,0.0031018478658192223,-0.01400873007417608,0.008510410974924058,-0.16357409954071045,-0.34874534606933594,-0.922832727432251,-0.007010834831235315,0.0015210664969011575,0.004244219853605854,0.999965318540871,0.0015935637056827545,-0.004521714989095926,-0.01031360775232315,0.0024186372756958008,-0.009469479322433472,-0.010923683643341064
2025-09-20T02:23:45Z,0.002974678920298436,-0.013971774296236044,0.00827215645352989,-0.16360531747341156,-0.3488190472126007,-0.9227993488311768,-0.006991914104254763,0.0014583960059651399,0.00412557053583103,0.9999660286558563,0.001688072457909584,-0.009989743120968342,-0.00858453381806612,0.0022611767053604126,-0.008723050355911255,-0.010987937450408936
2025-09-20T02:23:45Z,0.0027174683484903987,-0.013918767338677017,0.008110177853323793,-0.16378414630889893,-0.3488948941230774,-0.9227389097213745,-0.0069647728890298525,0.0013304689837512155,0.004045519729948499,0.9999667629782445,0.0014018258079886436,-0.010595190338790417,-0.005582829937338829,0.002546831965446472,-0.007990986108779907,-0.01201331615447998
2025-09-20T02:23:45Z,0.002518085616259914,-0.013851444440798624,0.008021987828579736,-0.16393627226352692,-0.3489716351032257,-0.9226828813552856,-0.0069306550794334485,0.0012312233649362546,0.0040021638877083135,0.9999672810679708,0.002740581054240465,-0.01121460273861885,-0.00218221521936357,0.0025323480367660522,-0.007990241050720215,-0.012195825576782227
2025-09-20T02:23:45Z,0.0022782086038975052,-0.013719031411070733,0.008028576121262739,-0.1641600877046585,-0.34909266233444214,-0.9225972890853882,-0.00686397442864098,0.001111532262750727,0.004006366459929595,0.9999678481955995,0.0039863185957074165,-0.009200023487210274,-0.000306676491163671,0.0025276988744735718,-0.007989943027496338,-0.012254476547241211
2025-09-20T02:23:45Z,0.002038331127386442,-0.01358664793537248,0.008035214020240829,-0.1643838882446289,-0.3492136299610138,-0.9225116968154907,-0.0067973075341590085,0.0009918409915962007,0.004010577806366504,0.9999684119610467,0.005232056137174368,-0.007185443304479122,0.0015688621206209064,0.0025230348110198975,-0.007989734411239624,-0.012313246726989746
2025-09-20T02:23:45Z,0.0018475415881655459,-0.013480841003589929,0.008029283084239891,-0.1645578145980835,-0.3493121862411499,-0.9224433302879333,-0.006744020414770769,0.0008966821048366486,0.004008311123944845,0.9999688776414055,0.004463185090571642,-0.006574792321771383,-0.00018904369790107012,0.0022674649953842163,-0.009052246809005737,-0.012065112590789795
2025-09-20T02:23:45Z,0.0016567390023603063,-0.013411874796933149,0.008003507722487115,-0.16472452878952026,-0.3493800759315491,-0.9223878979682922,-0.006709145666710376,0.0008015088832356636,0.003996096730270439,0.9999692357839357,0.0015883336309343576,-0.010209598578512669,-0.0018806570442393422,0.0019330084323883057,-0.00957876443862915,-0.011262953281402588
2025-09-20T02:23:45Z,0.001357793925180781,-0.013389362032397127,0.007949395388915792,-0.1649807095527649,-0.3494098484516144,-0.9223307967185974,-0.006697274375072538,0.0006522672267607646,0.003970051988778517,0.9999695616789721,0.0003344819415360689,-0.015467047691345215,-0.004961139056831598,0.0017711371183395386,-0.009833604097366333,-0.010874748229980469
2025-09-20T02:23:45Z,0.0009295064069961591,-0.01339333771621166,0.007818119296490516,-0.16532820463180542,-0.3494279384613037,-0.9222617149353027,-0.006698383574967679,0.0004385617995040242,0.0039058493418036478,0.9999698481740582,-0.0010651513002812862,-0.0236690491437912,-0.006790826562792063,0.0016369074583053589,-0.009608715772628784,-0.010323822498321533
2025-09-20T02:23:45Z,0.0004145117098324708,-0.013434265419152654,0.007635707258022026,-0.16573713719844818,-0.3494204878807068,-0.9221911430358887,-0.00671782441371824,0.00018160489474264706,0.003816366033082617,0.9999701268844633,-0.0017661105375736952,-0.025311630219221115,-0.009893730282783508,0.0019520074129104614,-0.010534465312957764,-0.01183474063873291
2025-09-20T02:23:45Z,-4.8154543152597165e-05,-0.013442226440825798,0.007429449708674797,-0.16608916223049164,-0.3494473993778229,-0.9221175909042358,-0.0067209269317886,-4.904340442084744e-05,0.0037147943007668554,0.9999704942637517,-0.0002089409390464425,-0.023590875789523125,-0.009256589226424694,0.0016108602285385132,-0.009495794773101807,-0.011937558650970459
2025-09-20T02:23:45Z,-0.0005298256802876507,-0.0133906809001436,0.0072931699164696644,-0.16648398339748383,-0.3495175540447235,-0.9220198392868042,-0.006694279956733255,-0.0002893200427568958,0.0036482688262234903,0.9999708538058255,0.0015274913748726249,-0.024736903607845306,-0.0026558139361441135,0.0007972866296768188,-0.007871240377426147,-0.011039197444915771
2025-09-20T02:23:45Z,-0.0009267279299875977,-0.013282663333847653,0.007327127477061043,-0.16686217486858368,-0.3496115207672119,-0.9219158291816711,-0.006639540202628402,-0.0004876813390865481,0.0036665517551598774,0.9999710928381582,0.004896185826510191,-0.01071980968117714,0.006821199785917997,0.0015258342027664185,-0.007383167743682861,-0.014414668083190918
2025-09-20T02:23:45Z,-0.0009841689234821197,-0.013201043134042903,0.007512096063065664,-0.1669820249080658,-0.34965604543685913,-0.9218772053718567,-0.006598578273524763,-0.0005168619069472529,0.003759205030733476,0.9999709931218139,0.0024355072528123856,0.007624506950378418,0.009546059183776379,0.0032780468463897705,-0.008693665266036987,-0.017890512943267822
2025-09-20T02:23:45Z,-0.0006106411270342864,-0.013187209712236633,0.007747737978047108,-0.16672292351722717,-0.3496297001838684,-0.9219341278076172,-0.006592324458549444,-0.0003308541365494476,0.00387578798730354,0.9999707191820767,-0.003423107787966728,0.02426173910498619,0.012562789022922516,0.004203483462333679,-0.007189273834228516,-0.018733561038970947
2025-09-20T02:23:46Z,-0.00023149842137656267,-0.013439636164080802,0.008051785804510115,-0.16648337244987488,-0.349346399307251,-0.9220848083496094,-0.006719247059676859,-0.00014279865112190907,0.004026568926242609,0.9999693034619506,-0.004996906034648418,0.01682446151971817,0.01152942143380642,0.0032838433980941772,-0.008289158344268799,-0.015971660614013672
2025-09-20T02:23:46Z,0.00014772721040923556,-0.013691927470352916,0.008355931156169205,-0.16624365746974945,-0.3490631580352783,-0.9222353100776672,-0.006846159153774141,4.525933535870292e-05,0.004177349891279596,0.9999678281844375,-0.006570704281330109,0.009387185797095299,0.010496053844690323,0.0023640841245651245,-0.009388953447341919,-0.013209939002990723
2025-09-20T02:23:46Z,0.0005270128704397663,-0.013944169211358463,0.008660185584662899,-0.16600383818149567,-0.3487798869609833,-0.9223856329917908,-0.006973103545021672,0.00023330812538203483,0.004328136744037932,0.9999662862414893,-0.008144502528011799,0.00194990960881114,0.009462686255574226,0.001444205641746521,-0.010488808155059814,-0.0104483962059021
2025-09-20T02:23:46Z,0.0004200618976937791,-0.014049690098435852,0.008831342425578485,-0.166164368391037,-0.3486540913581848,-0.9224042892456055,-0.007025645920838284,0.00017900466609863528,0.004414072334309248,0.9999655775523909,-0.003223039675503969,-0.0048960186541080475,0.007742595858871937,0.00040884315967559814,-0.01020076870918274,-0.01030796766281128
2025-09-20T02:23:46Z,0.0003131143305818225,-0.01415522825686162,0.009002491001384305,-0.1663248986005783,-0.34852826595306396,-0.9224229454994202,-0.0070781875566310335,0.00012469394944789825,0.004500009235659303,0.9999648696217167,0.0016984231770038605,-0.011741946451365948,0.0060225059278309345,-0.0006265193223953247,-0.00991278886795044,-0.010167598724365234
2025-09-20T02:23:46Z,0.00011723118774470798,-0.014143206289997105,0.009142765226861695,-0.16655631363391876,-0.3485160171985626,-0.9223858118057251,-0.0070717376754848675,2.6286897328638506e-05,0.004570837511910674,0.9999646295152238,0.003460978390648961,-0.011951323598623276,0.005082750227302313,0.00011558830738067627,-0.009097844362258911,-0.011996626853942871
2025-09-20T02:23:46Z,-7.403080269577912e-05,-0.014072884031096173,0.009241103738316771,-0.16676823794841766,-0.34856441617012024,-0.9223292469978333,-0.007036137947239068,-6.952595384445756e-05,0.004620681583484135,0.9999645482655071,0.0029506664723157883,-0.007412781473249197,0.00430177990347147,0.0004094839096069336,-0.008611202239990234,-0.014405608177185059
2025-09-20T02:23:46Z,-0.00018687895767743155,-0.014017582611593901,0.00932894676194069,-0.16690409183502197,-0.3486008048057556,-0.9222909212112427,-0.007008221743661357,-0.00012612809943288728,0.0046649967188484385,0.9999645627542085,0.0004121423698961735,-0.003335067071020603,0.0017262606415897608,0.0008213073015213013,-0.008470624685287476,-0.014695882797241211
2025-09-20T02:23:46Z,-0.00027441952293084606,-0.01406335254640098,0.009360482224171882,-0.16699624061584473,-0.348553329706192,-0.922292172908783,-0.007030898884771072,-0.00017011440796175592,0.004681072934527619,0.9999643413675086,-0.002398294396698475,-0.0027278908528387547,0.0015234838938340545,-0.0006683766841888428,-0.008183330297470093,-0.014582812786102295
2025-09-20T02:23:46Z,-0.00033333356413091283,-0.01413262289324532,0.009439483042263415,-0.1670791357755661,-0.3484762907028198,-0.9223062992095947,-0.007065386950449282,-0.00020001151485623213,0.004720783603953945,0.999963917121173,-0.0020789385307580233,-0.0034896978177130222,0.002684745006263256,-0.00038936734199523926,-0.00794878602027893,-0.012306809425354004
2025-09-20T02:23:46Z,-0.00040035581325576376,-0.01416730080187401,0.00944402806065684,-0.1671425998210907,-0.34844353795051575,-0.9223071336746216,-0.007082566634325568,-0.00023361933493583364,0.004723295749678138,0.9999637635626833,-0.0001334288390353322,0.001292587723582983,2.968963235616684e-05,-1.5467405319213867e-05,-0.010706037282943726,-0.013516664505004883
2025-09-20T02:23:46Z,-0.00032743803627150364,-0.014131043405022886,0.009386971131179034,-0.16705471277236938,-0.3484864830970764,-0.9223068356513977,-0.007064616502690792,-0.0001968746497188076,0.004694507786116182,0.99996402133197,0.002169789280742407,0.005776572972536087,-0.004596955142915249,0.0011875033378601074,-0.011070996522903442,-0.013366222381591797
2025-09-20T02:23:46Z,-0.00016616480370978086,-0.014083886012916866,0.009259317144583303,-0.16685982048511505,-0.34855127334594727,-0.922317624092102,-0.007041424436947347,-0.00011568085089052508,0.004630112117471619,0.9999645177973203,0.002086010994389653,0.004200017545372248,-0.0048721241764724255,0.00030530989170074463,-0.008221298456192017,-0.010607123374938965
2025-09-20T02:23:46Z,-0.00011546006148339251,-0.01408668567667753,0.009185372930317834,-0.166786327958107,-0.34856101870536804,-0.9223272800445557,-0.007042944928051939,-9.00754684472443e-05,0.004592962833453288,0.9999646822028477,-0.0008851680904626846,0.001552497036755085,-0.0036223577335476875,0.00011055171489715576,-0.006877213716506958,-0.010022103786468506
2025-09-20T02:23:46Z,-6.137725028055062e-05,-0.014109918596690824,0.009048719945837594,-0.1666870415210724,-0.3485623300075531,-0.9223446846008301,-0.007054689554588505,-6.260634608067188e-05,0.0045244483370611545,0.9999649016210816,-0.002503037918359041,0.0012401778949424624,-0.005414971150457859,0.0013987720012664795,-0.007472217082977295,-0.011277377605438232
2025-09-20T02:23:46Z,1.9255134203794034e-05,-0.014117840076880706,0.008896981942099523,-0.16655780375003815,-0.3485803008079529,-0.9223612546920776,-0.00705883432020479,-2.1773944784129623e-05,0.004448297460787033,0.9999652030394051,-0.0010995586635544896,0.004631211049854755,-0.007847253233194351,0.0021144896745681763,-0.00846889615058899,-0.012613058090209961
2025-09-20T02:23:46Z,0.0001597048165295177,-0.014116131814060871,0.008710595554916553,-0.16636085510253906,-0.348612904548645,-0.9223844408988953,-0.007058288085394054,4.911003568513365e-05,0.004354611901440574,0.9999656113014156,0.0007492498261854053,0.007515858858823776,-0.00858643651008606,0.0023893117904663086,-0.008572012186050415,-0.012857913970947266
2025-09-20T02:23:46Z,0.00030532462018932377,-0.014087480594058685,0.008550086066988098,-0.16616851091384888,-0.34866607189178467,-0.9223990440368652,-0.007044270045804778,0.0001225451740129039,0.004273848507622073,0.9999660735591411,0.0025997196789830923,0.008697208017110825,-0.008625703863799572,0.002458825707435608,-0.008258998394012451,-0.012594938278198242
2025-09-20T02:23:46Z,0.0004507173182027599,-0.013996411742044138,0.00839027490597133,-0.1659766286611557,-0.3487766981124878,-0.9223917722702026,-0.0069990319652772845,0.00019599303866339764,0.004193444989313871,0.9999667529910592,0.0035361237823963165,0.007037754636257887,-0.00855490006506443,0.002412736415863037,-0.008642822504043579,-0.012544453144073486
2025-09-20T02:23:46Z,0.0005961147902040805,-0.013905343232340215,0.008230453044206882,-0.16578471660614014,-0.34888726472854614,-0.92238450050354,-0.006953782637695796,0.00026943614699965037,0.004113042808182311,0.9999673736240142,0.004472528118640184,0.005378301255404949,-0.008484097197651863,0.0023666173219680786,-0.009026706218719482,-0.01249396800994873
2025-09-20T02:23:46Z,0.0007039615286481503,-0.013837461476168829,0.008049253355120141,-0.16561973094940186,-0.34898000955581665,-0.9223790168762207,-0.006920035224411609,0.0003241244570429647,0.0040220837797665865,0.9999679737354297,0.0029374985024333,0.002522514434531331,-0.006752613931894302,0.0022287070751190186,-0.008478760719299316,-0.011713862419128418
2025-09-20T02:23:46Z,0.0006986180468079352,-0.013785220527541782,0.007913919640738374,-0.16557571291923523,-0.3490506708621979,-0.9223601818084717,-0.006893883011551986,0.0003220244732741469,0.003954447382634691,0.9999684328884513,0.0014922107802703977,-0.0024974278640002012,-0.005463888868689537,0.001328587532043457,-0.007432907819747925,-0.010035514831542969
2025-09-20T02:23:46Z,0.0005829787388560681,-0.013790990220044642,0.007832074701055784,-0.16565273702144623,-0.3490588963031769,-0.9223432540893555,-0.006896528963008423,0.0002644774746142929,0.0039139242624505015,0.9999684937990823,-0.00035307195503264666,-0.008540219627320766,-0.0029500648379325867,0.0012975484132766724,-0.006564050912857056,-0.010313451290130615
2025-09-20T02:23:46Z,0.0004164639380533084,-0.01382347568570882,0.007774837195541877,-0.16578561067581177,-0.3490384519100189,-0.9223271012306213,-0.006912439930323608,0.00018135688483909368,0.003885876662174368,0.9999685378156333,-0.001109585165977478,-0.009103945456445217,-0.0009463203605264425,0.0016216039657592773,-0.006881594657897949,-0.011917412281036377
2025-09-20T02:23:46Z,0.00022655268496675962,-0.013868196864954106,0.007728932228751428,-0.1659441739320755,-0.349004864692688,-0.9223113059997559,-0.006934428752351789,8.647646619703335e-05,0.0038635780910044088,0.9999684937160044,-0.0011307522654533386,-0.008608122356235981,-0.0007005090010352433,0.0011643320322036743,-0.007689386606216431,-0.012850582599639893
2025-09-20T02:23:46Z,7.634363983603632e-05,-0.013867970291659268,0.007717144506708868,-0.16607843339443207,-0.3490070104598999,-0.922286331653595,-0.006934025257023251,1.1415616140159762e-05,0.0038582052450113246,0.9999685142051197,0.0004896899918094277,-0.0040823183953762054,-1.1580181308090687e-05,0.0012947618961334229,-0.008516162633895874,-0.012786865234375
2025-09-20T02:23:46Z,-5.193667864586677e-06,-0.013796511237856043,0.007750006650082592,-0.1661655157804489,-0.34906744956970215,-0.9222477674484253,-0.006898139204603639,-2.9327238995084115e-05,0.003874919426935838,0.9999686778975286,0.005582118406891823,-0.001898943679407239,0.0008610456716269255,0.0013542920351028442,-0.008893579244613647,-0.012757837772369385
2025-09-20T02:23:46Z,2.8553395348614085e-05,-0.013615972185138424,0.007785294669662388,-0.1661471575498581,-0.3492280840873718,-0.922190248966217,-0.0068079376901368045,-1.2224560482209643e-05,0.003892450212128353,0.9999692212421615,0.010127488523721695,0.0002666960936039686,0.0019657532684504986,0.0013224482536315918,-0.008698910474777222,-0.01236182451248169
2025-09-20T02:23:46Z,7.43402094954062e-05,-0.013387743812447533,0.007788230844524346,-0.16610601544380188,-0.34943804144859314,-0.9221181273460388,-0.006693916054217638,1.110253995844419e-05,0.0038937696161667474,0.9999699914882377,0.009938172996044159,0.002515592845156789,-0.000578954117372632,0.0012623369693756104,-0.009724199771881104,-0.012610137462615967
