timestamp,attitude_roll,attitude_pitch,attitude_yaw,gravity_x,gravity_y,gravity_z,quaternion_x,quaternion_y,quaternion_z,quaternion_w,rotation_rate_x,rotation_rate_y,rotation_rate_z,user_acceleration_x,user_acceleration_y,user_acceleration_z
2025-09-20T02:19:48Z,-1.2928565117804625e-05,0.034003323515396824,0.08031265838941155,-0.20367999374866486,-0.24244146049022675,-0.948544442653656,0.01698739806171436,0.0006760499853853411,0.04013962894157498,0.9990493656510443,0.009063780307769775,0.01819099858403206,0.01310579851269722,0.008384272456169128,-0.014630407094955444,-0.013958156108856201
2025-09-20T02:19:48Z,0.0004033304546189791,0.034223547619160355,0.08058683886466717,-0.2033427357673645,-0.24259452521800995,-0.9485777020454407,0.017088929165987112,0.0008907439241709712,0.04028007058039096,0.9990417917314178,0.005224799271672964,0.021335527300834656,0.016743343323469162,0.009873777627944946,-0.012227535247802734,-0.01547229290008545
2025-09-20T02:19:48Z,0.0008753851158478313,0.03438768429407847,0.08106831817511692,-0.20299606025218964,-0.24265214800834656,-0.9486371874809265,0.017161138184280524,0.00113398125387063,0.04052458837804386,0.9990304479373229,0.008971177972853184,0.022784335538744926,0.03054826706647873,0.00954824686050415,-0.008348062634468079,-0.014724493026733398
2025-09-20T02:19:48Z,0.0012851558064939802,0.034703718824431774,0.08198134127528639,-0.2027989774942398,-0.24276582896709442,-0.9486502408981323,0.0173100827563235,0.0013529709363297904,0.04098415712877287,0.999008875084376,0.024280879646539688,0.02959534525871277,0.06008998304605484,0.008959978818893433,-0.004728332161903381,-0.014108777046203613
2025-09-20T02:19:48Z,0.0020481225625811604,0.03538277288162039,0.08357845021885756,-0.20241011679172516,-0.2430838644504547,-0.9486518502235413,0.017632235174919252,0.0017620623411854252,0.04178860615929532,0.9989692707924278,0.03902984410524368,0.048940811306238174,0.09668514132499695,0.010485932230949402,-0.0017504990100860596,-0.01815134286880493
2025-09-20T02:19:48Z,0.0031680229638756494,0.03627579642996116,0.08574782168404439,-0.20180198550224304,-0.24348704516887665,-0.9486780166625977,0.018052334848185424,0.00235965602024118,0.04288237942977369,0.9989141526132731,0.0446794256567955,0.06689372658729553,0.12352319806814194,0.010038912296295166,-0.0028907358646392822,-0.01739448308944702
2025-09-20T02:19:48Z,0.0044545506359397295,0.03725462912360672,0.08840681520040444,-0.20113712549209595,-0.24386994540691376,-0.9487208724021912,0.018509594833088464,0.0030477853358186536,0.04422268797336504,0.9988454602248173,0.04674530774354935,0.06962868571281433,0.13588480651378632,0.008066698908805847,-0.005973502993583679,-0.012570798397064209
2025-09-20T02:19:48Z,0.005670708985051487,0.038161610387309405,0.09120635227842575,-0.20056691765785217,-0.2441541701555252,-0.9487684965133667,0.018930504158990245,0.003701675427586054,0.04563293607312065,0.9987719184568995,0.04270855337381363,0.05911359563469887,0.14133571088314056,0.0056342631578445435,-0.008710131049156189,-0.008810997009277344
2025-09-20T02:19:48Z,0.006657690328498579,0.03902331392194833,0.09406070494668753,-0.20022401213645935,-0.24438242614269257,-0.9487821459770203,0.019332270272623936,0.004241764333235886,0.04706868652293401,0.9986954801286521,0.03991333395242691,0.04485894367098808,0.14266379177570343,0.004366770386695862,-0.010758087038993835,-0.009004414081573486
2025-09-20T02:19:48Z,0.0072680089106460285,0.039702458787902295,0.09696351250048248,-0.2002466320991516,-0.24442587792873383,-0.9487661719322205,0.01965039344841779,0.004590987741566469,0.0485249507973551,0.9986180277889556,0.036832667887210846,0.03692058101296425,0.14247071743011475,0.004670247435569763,-0.012250170111656189,-0.009566545486450195
2025-09-20T02:19:48Z,0.007876356121703372,0.04038340481822039,0.09986598132872605,-0.20026938617229462,-0.2444692850112915,-0.9487501978874207,0.019968487718106238,0.004940195009087872,0.04998109987034254,0.998538226229606,0.03375200554728508,0.028982218354940414,0.14227762818336487,0.004973843693733215,-0.013742268085479736,-0.010128676891326904
2025-09-20T02:19:48Z,0.008202648790684358,0.04115947303497115,0.10265654513829196,-0.20053528249263763,-0.24462425708770752,-0.948654055595398,0.020340634256162855,0.005150819728292482,0.0513787318494919,0.9984587241502088,0.04217645525932312,0.010443715378642082,0.13754959404468536,0.004621550440788269,-0.01530960202217102,-0.006789267063140869
2025-09-20T02:19:48Z,0.008182705755965705,0.04220244706227974,0.10541466085037389,-0.20112194120883942,-0.24503697454929352,-0.9484233260154724,0.02085468565785333,0.005196333256381143,0.05275697054218278,0.9983759966361758,0.05506705865263939,0.0018698247149586678,0.14136487245559692,0.005125477910041809,-0.013141632080078125,-0.009587287902832031
2025-09-20T02:19:48Z,0.008107483247448323,0.043510937811556766,0.10840103678443189,-0.20180654525756836,-0.2456514686346054,-0.9481189250946045,0.021502075980184717,0.005225298148830416,0.05424877844160465,0.9982821636359849,0.06937243789434433,0.0011613982496783137,0.15897686779499054,0.006365925073623657,-0.009329721331596375,-0.01205456256866455
2025-09-20T02:19:48Z,0.008152022521706723,0.045026212427434445,0.11183806032218195,-0.20246785879135132,-0.24636484682559967,-0.9477927684783936,0.02224808342775359,0.0053267365353214784,0.055966881101619875,0.9981704356152153,0.0759715661406517,0.013164028525352478,0.18271923065185547,0.009949073195457458,-0.005441710352897644,-0.016191422939300537
2025-09-20T02:19:48Z,0.008358860065746189,0.0467026417744693,0.11579721326945691,-0.20307908952236176,-0.24711774289608002,-0.9474659562110901,0.02306808963308652,0.00552239654710971,0.05794740755335523,0.9980377603171868,0.08388423174619675,0.02276374027132988,0.21909606456756592,0.00828753411769867,-0.00046265125274658203,-0.015700578689575195
2025-09-20T02:19:48Z,0.008712592182341211,0.04852028098438382,0.1207044730345578,-0.20373950898647308,-0.24779973924160004,-0.9471459984779358,0.023950693018415212,0.005810179602035828,0.06040276893359262,0.9978697366452304,0.0940231904387474,0.03821024298667908,0.2655808925628662,0.00928547978401184,0.001401275396347046,-0.01641780138015747
2025-09-20T02:19:48Z,0.009307991017499946,0.05049909790352331,0.12633491117878026,-0.2043115794658661,-0.24847467243671417,-0.9468458890914917,0.024902550615402887,0.006236919227318558,0.06322191710665317,0.9976692342249827,0.09996795654296875,0.044670332223176956,0.2951924502849579,0.009148702025413513,-0.002451792359352112,-0.014880180358886719
2025-09-20T02:19:49Z,0.009966366127784423,0.05261544394975914,0.13242570980087456,-0.20490968227386475,-0.24917390942573547,-0.9465328454971313,0.025917127428459082,0.0067109372398608605,0.06627156376820877,0.9974423710409975,0.10211903601884842,0.048533737659454346,0.3089043200016022,0.009783253073692322,-0.008495151996612549,-0.013913154602050781
2025-09-20T02:19:49Z,0.010559676926115842,0.054739570618783935,0.13870233321944989,-0.2055986374616623,-0.24983227252960205,-0.9462098479270935,0.02693447412492365,0.0071614921320798395,0.06941281471799832,0.9971985842874711,0.10717237740755081,0.044655557721853256,0.31612762808799744,0.008623063564300537,-0.012384042143821716,-0.01115262508392334
2025-09-20T02:19:49Z,0.011124246029878106,0.057014299781389575,0.14500492751649016,-0.20631223917007446,-0.25061851739883423,-0.9458464980125427,0.02802521995391509,0.0076099454200556325,0.07256653530767593,0.996940637958078,0.11572545021772385,0.046570345759391785,0.3160420358181,0.00926138460636139,-0.017695963382720947,-0.012985527515411377
2025-09-20T02:19:49Z,0.011799514261193862,0.05936593050333975,0.15134557301431448,-0.20692066848278046,-0.2514602839946747,-0.9454901218414307,0.029147332070903375,0.008123929118322756,0.07574056579390966,0.9966683028952323,0.11577630043029785,0.053995270282030106,0.318197101354599,0.008742466568946838,-0.017244398593902588,-0.013439357280731201
2025-09-20T02:19:49Z,0.012593965041359586,0.0617201011431586,0.15760585993621876,-0.20739269256591797,-0.25231319665908813,-0.9451594352722168,0.03026332188668057,0.0087033235502261,0.07887604719267095,0.996386905592864,0.10967211425304413,0.0579671747982502,0.3056792914867401,0.007302448153495789,-0.01994892954826355,-0.01336514949798584
2025-09-20T02:19:49Z,0.013571628795237297,0.06392368199440648,0.16355899968979337,-0.20762412250041962,-0.2530832588672638,-0.9449027180671692,0.03129483096441327,0.009370036056665473,0.08186089896483373,0.9961082271941473,0.0995306670665741,0.0737299844622612,0.2901296317577362,0.005810379981994629,-0.02371618151664734,-0.01380300521850586
2025-09-20T02:19:49Z,0.014765955164929304,0.06590672521234908,0.16874355637399246,-0.20749616622924805,-0.25380784273147583,-0.9447364211082458,0.03220747193064262,0.01012911249304405,0.08446604900765438,0.9958541662788578,0.09247132390737534,0.07135344296693802,0.25759434700012207,0.00632089376449585,-0.026354730129241943,-0.014014244079589844
2025-09-20T02:19:49Z,0.015950137779908533,0.06789591086892756,0.17392643175499223,-0.20737223327159882,-0.2545327842235565,-0.9445685744285583,0.03311984066247577,0.010888113576129337,0.08707050216655164,0.9955919094306073,0.08541198074817657,0.06897690147161484,0.22505903244018555,0.006835415959358215,-0.028992891311645508,-0.014227032661437988
2025-09-20T02:19:49Z,0.01712943829695326,0.0695374911487952,0.17828855158941317,-0.20709116756916046,-0.2551077902317047,-0.9444751143455505,0.033860426552281414,0.01162004491212165,0.08926572456025221,0.995364310382502,0.06510517001152039,0.06765572726726532,0.20193149149417877,0.006848230957984924,-0.022850066423416138,-0.013549268245697021
2025-09-20T02:19:49Z,0.017951980686667434,0.07075980375784978,0.1821504708021948,-0.20704732835292816,-0.25539615750312805,-0.9444068074226379,0.03440866193540035,0.012150054607404667,0.09120498443815837,0.9951633562498609,0.04830598831176758,0.04537366330623627,0.18028925359249115,0.002290859818458557,-0.021118462085723877,-0.006795167922973633
2025-09-20T02:19:49Z,0.018432095075988475,0.07171715267632309,0.18560340213217338,-0.20724599063396454,-0.2555239796638489,-0.9443286657333374,0.03484163235018329,0.012492470736712767,0.0929340237066806,0.9949840884082051,0.03920459747314453,0.023383501917123795,0.1661052256822586,0.0014507025480270386,-0.019304245710372925,-0.0015105605125427246
2025-09-20T02:19:49Z,0.01842870344620173,0.07263317709899678,0.18872923443111508,-0.20783743262290955,-0.25568410754203796,-0.9441553354263306,0.03527789752688182,0.012588197200948335,0.09449156760278399,0.994820811606463,0.037611447274684906,-0.004236167296767235,0.15238641202449799,-0.0008661150932312012,-0.01941150426864624,0.0004196763038635254
2025-09-20T02:19:49Z,0.017984713494964742,0.07350626828066419,0.19179662685673254,-0.20883145928382874,-0.2558150291442871,-0.943900465965271,0.03571411268123882,0.012463103951670064,0.09601176481867867,0.9946611734288678,0.03606778010725975,-0.017515214160084724,0.1499030888080597,0.001343563199043274,-0.01711943745613098,-0.003478407859802246
2025-09-20T02:19:49Z,0.01741940535169992,0.07428245978328112,0.194806899784104,-0.20992669463157654,-0.25586599111557007,-0.9436436891555786,0.03610886220071802,0.01227332998937391,0.09750062717204527,0.9945044767963748,0.03365495800971985,-0.01175016164779663,0.1490110605955124,0.004819333553314209,-0.016214311122894287,-0.011151611804962158
2025-09-20T02:19:49Z,0.01703926365210111,0.07500706320747408,0.19778707325077802,-0.210839182138443,-0.25587350130081177,-0.9434381723403931,0.03646962530819188,0.012173752943880043,0.09897728878852503,0.9943466636681084,0.027213547378778458,-0.003722580149769783,0.14336517453193665,0.005030319094657898,-0.01710951328277588,-0.014795303344726562
2025-09-20T02:19:49Z,0.016793027596050645,0.07559237172861177,0.20062762113381055,-0.21159692108631134,-0.25578007102012634,-0.9432938694953918,0.03675563539499036,0.012132328077137771,0.10038628956496613,0.9941953250333423,0.02281254529953003,-0.0045159198343753815,0.1414867639541626,0.0024636685848236084,-0.01568007469177246,-0.014799833297729492
2025-09-20T02:19:49Z,0.016525911943165068,0.07603236449191747,0.20343253497437366,-0.21236532926559448,-0.25555673241615295,-0.9431816935539246,0.03697087913665136,0.012073353924614309,0.10177655975993063,0.9940466977020285,0.017930980771780014,-0.002645453903824091,0.13868530094623566,0.002742677927017212,-0.014868378639221191,-0.01648867130279541
2025-09-20T02:19:49Z,0.016337677369141535,0.07647031150697155,0.20618875593410785,-0.21304860711097717,-0.255341112613678,-0.9430860280990601,0.03718156558874367,0.012053198642418397,0.10314380930649458,0.9938981472585839,0.01673400215804577,0.00027574505656957626,0.13566915690898895,0.0034178048372268677,-0.016083836555480957,-0.01653188467025757
2025-09-20T02:19:49Z,0.016328096473083736,0.07694068770752367,0.20901501984112003,-0.21357451379299164,-0.2551385760307312,-0.943021833896637,0.0373987294866377,0.01212541074012393,0.10454900502520922,0.993742284834233,0.02287478744983673,0.01774606853723526,0.14131680130958557,0.0052145421504974365,-0.01708245277404785,-0.016656100749969482
2025-09-20T02:19:49Z,0.01656882684551753,0.07762282661401275,0.21180495852320644,-0.21385684609413147,-0.2551417946815491,-0.9429569840431213,0.037707933971135595,0.012333079884658744,0.1059410602375065,0.9935805665722507,0.03294038027524948,0.02380979433655739,0.13734813034534454,0.004935130476951599,-0.020380288362503052,-0.013709604740142822
2025-09-20T02:19:49Z,0.016843421618494864,0.07841619440583629,0.21441663970548255,-0.2140738070011139,-0.25528889894485474,-0.9428679347038269,0.03807117827979592,0.012560989242295454,0.10724526241963105,0.993423956423185,0.038140617311000824,0.022388871759176254,0.12278755009174347,0.005829900503158569,-0.023464679718017578,-0.011834800243377686
2025-09-20T02:19:49Z,0.017155096173639913,0.07911117498735819,0.21672330986858077,-0.21419893205165863,-0.2554123103618622,-0.9428061246871948,0.03838495983734745,0.01279711732210667,0.10839835650044265,0.9932836660729327,0.03190232068300247,0.025959940627217293,0.11988620460033417,0.005458146333694458,-0.019276410341262817,-0.012789905071258545
2025-09-20T02:19:49Z,0.01746517736363926,0.07980682948384098,0.2190299204930099,-0.21432439982891083,-0.255535364151001,-0.942744255065918,0.03869866162415462,0.01303322277839944,0.10955129760994098,0.9931419281493841,0.02566402405500412,0.02953100949525833,0.11698485165834427,0.005086764693260193,-0.015088438987731934,-0.013745009899139404
2025-09-20T02:19:49Z,0.017868279267262713,0.08035622833973509,0.22131803478602946,-0.21435701847076416,-0.2555243968963623,-0.9427397847175598,0.038934215190605866,0.01330784312867953,0.11069645196133265,0.9930021125925063,0.021900584921240807,0.023624470457434654,0.10535245388746262,0.005065649747848511,-0.016576141119003296,-0.011961042881011963
2025-09-20T02:19:49Z,0.018039514102345864,0.08080559814504462,0.2230178397463418,-0.21450155973434448,-0.25555428862571716,-0.9426988363265991,0.039136449386064934,0.013450839001345026,0.11154470523104756,0.9928972994759996,0.020768605172634125,0.020124021917581558,0.08690986782312393,0.006106764078140259,-0.019220858812332153,-0.01230478286743164
2025-09-20T02:19:49Z,0.01820999442522587,0.08125529658745181,0.22471763459226352,-0.2146461457014084,-0.2555839717388153,-0.9426578879356384,0.03933867145206167,0.013593829282425064,0.11239287222850139,0.9927917051951222,0.019636625424027443,0.01662357524037361,0.06846728175878525,0.007147952914237976,-0.021865785121917725,-0.012648522853851318
2025-09-20T02:19:49Z,0.018379673669006776,0.08170531629385805,0.2264173987783049,-0.21479083597660065,-0.25561344623565674,-0.9426169395446777,0.0395408809093615,0.013736790253282807,0.11324094068449739,0.9926853326322899,0.018504643812775612,0.013123126700520515,0.05002469941973686,0.008189216256141663,-0.024510949850082397,-0.01299220323562622
2025-09-20T02:19:49Z,0.018471852798362116,0.08211483040667024,0.22735195895185348,-0.21487192809581757,-0.25578150153160095,-0.9425528645515442,0.03973248261328487,0.01382414421126651,0.11370754050223196,0.992623115679943,0.017309967428445816,0.008544264361262321,0.03728952258825302,0.006797686219215393,-0.020886898040771484,-0.012133121490478516
2025-09-20T02:19:49Z,0.018578064817528918,0.08248791109672203,0.22806592613425156,-0.21490031480789185,-0.25596630573272705,-0.9424961805343628,0.0399066593917862,0.013912175031360743,0.11406483895602221,0.9925739126208338,0.015377815812826157,0.004670510999858379,0.03403719514608383,0.005800843238830566,-0.017944276332855225,-0.010964691638946533
2025-09-20T02:19:49Z,0.018466767442833834,0.0828894802554543,0.22878414257822713,-0.21513447165489197,-0.25617673993110657,-0.9423856139183044,0.04010732860295385,0.01389409212972593,0.11441994026767192,0.9925252515292643,0.015073609538376331,-0.0034011397510766983,0.03614020720124245,0.0035510510206222534,-0.014789581298828125,-0.011458933353424072
2025-09-20T02:19:49Z,0.018393727320361382,0.0832639318863248,0.2296007884570792,-0.2153497040271759,-0.25633877515792847,-0.9422923922538757,0.04029168012737184,0.013895579189314715,0.11482455976914593,0.9924709966374865,0.01450340636074543,-0.004599401727318764,0.044000834226608276,0.005334958434104919,-0.012273848056793213,-0.010850489139556885
2025-09-20T02:19:49Z,0.018165584791273916,0.08363792842665767,0.23055328507667364,-0.21573494374752045,-0.2564687132835388,-0.9421688914299011,0.04048380584299809,0.013822979150699943,0.11529340246127985,0.992409830889692,0.017680654302239418,-0.012090301141142845,0.05479634553194046,0.003375217318534851,-0.011174649000167847,-0.00947505235671997
2025-09-20T02:19:49Z,0.01785456192534028,0.08411325877090647,0.23176483937949358,-0.21624423563480377,-0.2566334307193756,-0.942007303237915,0.040729309043929775,0.013720544765949316,0.11588921018364044,0.9923318789427337,0.022268857806921005,-0.012777792289853096,0.06632968783378601,0.004023566842079163,-0.011201649904251099,-0.0090867280960083
2025-09-20T02:19:49Z,0.01744227043852286,0.08465347098203359,0.23321966486741136,-0.21689163148403168,-0.25680211186408997,-0.9418124556541443,0.04101139013147914,0.013576918142599348,0.11660362974919262,0.9922385420631356,0.02773337997496128,-0.012768550775945187,0.0755358412861824,0.0039102137088775635,-0.012880921363830566,-0.012416541576385498
2025-09-20T02:19:49Z,0.017134875706788625,0.08534431007664674,0.23484623280541014,-0.2174704670906067,-0.25707167387008667,-0.9416053891181946,0.04136111486627626,0.013498082775328398,0.11740548178282179,0.9921304975836458,0.029871439561247826,-0.0072260769084095955,0.08619707822799683,0.004839256405830383,-0.01377972960472107,-0.013102412223815918
2025-09-20T02:19:49Z,0.01693877000163265,0.08602559546594722,0.23665257092459793,-0.21797533333301544,-0.2572898268699646,-0.941429078578949,0.0416984594618326,0.013478214465749474,0.11829858054140736,0.9920105502072226,0.03319261223077774,-0.0010937280021607876,0.09217201918363571,0.0050207823514938354,-0.014473259449005127,-0.013803720474243164
2025-09-20T02:19:49Z,0.016869343573498775,0.08685732442135827,0.23863357592047674,-0.21839134395122528,-0.257607638835907,-0.9412457346916199,0.04210175510102404,0.013534382072669337,0.11928100540319558,0.9918750961521824,0.03820878267288208,0.003506666049361229,0.09817089885473251,0.004988908767700195,-0.01524922251701355,-0.012476682662963867
2025-09-20T02:19:49Z,0.016798238969089014,0.08768887675316582,0.2406147916942145,-0.21880801022052765,-0.2579244375228882,-0.9410622119903564,0.04250498483253639,0.013590522621427494,0.12026329762394383,0.991738497235517,0.04322494938969612,0.008107058703899384,0.10416977107524872,0.004957705736160278,-0.016026198863983154,-0.011149764060974121
2025-09-20T02:19:49Z,0.016700192977841193,0.08855679281593973,0.24274895197419513,-0.2192758470773697,-0.25823870301246643,-0.9408670663833618,0.042926758560180744,0.013639590890514728,0.12132069213490278,0.99159083514539,0.03893795982003212,0.007706373929977417,0.10718980431556702,0.005230724811553955,-0.015451610088348389,-0.011609911918640137
2025-09-20T02:19:49Z,0.01670213188885931,0.08932574676519965,0.24489020628697236,-0.2196493297815323,-0.2584576904773712,-0.9407198429107666,0.043293238361850284,0.0137332732711629,0.12238338628894987,0.9914429913252658,0.03102818690240383,0.007828377187252045,0.10109534114599228,0.004224032163619995,-0.016530245542526245,-0.01198345422744751
2025-09-20T02:19:49Z,0.016610401450765373,0.08989881465337331,0.24691883489567545,-0.22008952498435974,-0.258518785238266,-0.9406001567840576,0.04356901479570066,0.013766854227004282,0.1233877469037328,0.9913059897103679,0.02553682029247284,0.0032866639085114002,0.10171354562044144,0.0022612065076828003,-0.017161667346954346,-0.009260594844818115
2025-09-20T02:19:49Z,0.016464523943490263,0.09044716814720556,0.24887529192735108,-0.22056706249713898,-0.25857287645339966,-0.9404733777046204,0.04383638289646567,0.01377106675963837,0.1243549441488644,0.9911732255051322,0.024413514882326126,-0.0030097337439656258,0.09473579376935959,0.003671407699584961,-0.02125859260559082,-0.009984493255615234
2025-09-20T02:19:49Z,0.016224846084057255,0.09097612116455984,0.2506978082335426,-0.22110877931118011,-0.25863969326019287,-0.9403278231620789,0.04410095765766352,0.013725170933039179,0.12525347086314176,0.9910490702941251,0.02388318069279194,0.0022800560109317303,0.08612197637557983,0.005869612097740173,-0.022254586219787598,-0.0141066312789917
2025-09-20T02:19:49Z,0.016297639639747917,0.09149524465665178,0.25243095358997314,-0.22134044766426086,-0.25871771574020386,-0.9402518272399902,0.044341690251088944,0.013831992737204798,0.12611445163545812,0.9909276384861982,0.019551144912838936,0.012359900400042534,0.08570261299610138,0.004582270979881287,-0.020957142114639282,-0.0121232271194458
2025-09-20T02:19:49Z,0.016341291155054716,0.09191876290830675,0.25410071068127504,-0.22158753871917725,-0.25872063636779785,-0.9401928782463074,0.04453719072617348,0.013917357246100107,0.1269431638476102,0.9908118538217269,0.01605321653187275,0.007274829316884279,0.08053314685821533,0.0021862685680389404,-0.01936107873916626,-0.009973406791687012
2025-09-20T02:19:49Z,0.016547357752138378,0.09233547836168865,0.25563502627342405,-0.22165809571743011,-0.2587486803531647,-0.9401684999465942,0.04471978634100298,0.014080049147813557,0.127708312301207,0.9907029599619148,0.01599673181772232,0.027104053646326065,0.07110750675201416,0.006120428442955017,-0.026118725538253784,-0.014104843139648438
2025-09-20T02:19:49Z,0.017048610083218733,0.09265776271007321,0.25683762945658817,-0.22139360010623932,-0.2587662935256958,-0.9402259588241577,0.04483880025006119,0.014375763730540003,0.1283156071996735,0.9906148746122716,0.010896915569901466,0.03448738902807236,0.0459534116089344,0.006493076682090759,-0.029719918966293335,-0.016418099403381348
2025-09-20T02:19:49Z,0.01772551613126275,0.09285559481035834,0.2574970592822886,-0.22087045013904572,-0.2587956190109253,-0.9403409361839294,0.04488850980167969,0.014738454475829912,0.12865766900905434,0.9905629116733212,-0.0002570711076259613,0.03640726953744888,0.023401815444231033,0.0069548338651657104,-0.02544724941253662,-0.01566535234451294
2025-09-20T02:19:49Z,0.018455797642585182,0.0927212196255044,0.257850664231192,-0.22024331986904144,-0.25858619809150696,-0.9405456185340881,0.04477229646324685,0.015099474570442781,0.12884896056161743,0.9905379330441455,-0.014968736097216606,0.029769524931907654,0.013536795042455196,0.0053720176219940186,-0.018516898155212402,-0.01327425241470337
2025-09-20T02:19:49Z,0.018952998818349425,0.09234413704179886,0.2580540574934419,-0.219808429479599,-0.2581849992275238,-0.9407575726509094,0.04455192687199822,0.015326122292991764,0.1289601747268691,0.9905298961476001,-0.022278327494859695,0.018617773428559303,0.009431115351617336,0.004488930106163025,-0.01560935378074646,-0.00923687219619751
2025-09-20T02:19:50Z,0.01915736776884107,0.09188833636841087,0.25822017372193334,-0.21964219212532043,-0.2577188313007355,-0.9409241676330566,0.044311701498160334,0.015401828161363627,0.12904618756541852,0.9905282828547969,-0.021388620138168335,0.006144185550510883,0.005287801846861839,0.003770798444747925,-0.016135036945343018,-0.00718235969543457
2025-09-20T02:19:50Z,0.01921423168518237,0.09161951225489322,0.25835032773936806,-0.21960951387882233,-0.25743624567985535,-0.9410091638565063,0.044173875279116946,0.015415637842479759,0.12911142412483298,0.9905257102475179,-0.01593061536550522,0.0027854652144014835,0.008925022557377815,0.0035409629344940186,-0.01507154107093811,-0.007528781890869141
2025-09-20T02:19:50Z,0.019271114678563184,0.09135069678611181,0.2584804934385999,-0.21957680583000183,-0.2571536600589752,-0.9410940408706665,0.04403604865402827,0.015429439344827597,0.12917665414081517,0.9905231387119965,-0.010472612455487251,-0.0005732548888772726,0.012562243267893791,0.003311142325401306,-0.014008045196533203,-0.007875263690948486
2025-09-20T02:19:50Z,0.019224550288873314,0.09118698353545705,0.25883781574071096,-0.21968062222003937,-0.25691571831703186,-0.9411348104476929,0.04395521426035656,0.015403728288856802,0.12935229662898026,0.9905042132534515,-0.00965025182813406,0.0015208108816295862,0.018477696925401688,0.004757210612297058,-0.013231158256530762,-0.012271523475646973
2025-09-20T02:19:50Z,0.01930966880017104,0.09097250445472951,0.2592278680067016,-0.2196657806634903,-0.25662246346473694,-0.9412182569503784,0.043840464323381824,0.015440654895186128,0.12954694205786227,0.9904833023917534,-0.012838730588555336,0.009991489350795746,0.02065376564860344,0.005234092473983765,-0.015775054693222046,-0.01515108346939087
2025-09-20T02:19:50Z,0.019463373550812554,0.09072421696067724,0.2597247093962878,-0.21960429847240448,-0.25627216696739197,-0.9413280487060547,0.043703679784713505,0.015511659422912088,0.12979589756063123,0.9904556359738088,-0.017257852479815483,0.005642860662192106,0.01933703012764454,0.003372669219970703,-0.014949947595596313,-0.015137016773223877
2025-09-20T02:19:50Z,0.01942389787233993,0.09025513883686606,0.2601584020600693,-0.2197127789258957,-0.25572991371154785,-0.9414502382278442,0.0434705595372475,0.01547129937806869,0.13000892929922567,0.990438578136607,-0.02475949376821518,0.007904483005404472,0.018458174541592598,0.006078660488128662,-0.01599043607711792,-0.014994621276855469
2025-09-20T02:19:50Z,0.01959380010109163,0.08978504652299431,0.2605229115379515,-0.21961234509944916,-0.2552030086517334,-0.9416165947914124,0.043223858320413755,0.015532962949112132,0.130192224927058,0.9904243273882017,-0.026188403367996216,0.004358184989541769,0.013795977458357811,0.0031142979860305786,-0.01778542995452881,-0.012456059455871582
2025-09-20T02:19:50Z,0.019681515674000904,0.08929932124185597,0.26074711835769054,-0.21956534683704376,-0.2546946108341217,-0.9417651891708374,0.042975839501471595,0.015549811623792082,0.13030419576916827,0.9904201274426662,-0.020207524299621582,-0.0014575151726603508,0.0041641611605882645,0.004476457834243774,-0.02295011281967163,-0.009910166263580322
2025-09-20T02:19:50Z,0.01981717275191354,0.08896794139185923,0.2606085587463983,-0.2194124162197113,-0.25441688299179077,-0.9418759346008301,0.04280395886861298,0.015592579156945332,0.13023782562334696,0.9904356390489514,-0.01436570007354021,0.007020418532192707,-0.01676885038614273,0.006176352500915527,-0.029993325471878052,-0.012268483638763428
2025-09-20T02:19:50Z,0.019934906661556506,0.08873758343674235,0.26000140475495304,-0.21919728815555573,-0.2543448507785797,-0.9419454336166382,0.042686946438259,0.015623025469045428,0.12993919312845403,0.9904794216311809,-0.013967487961053848,-0.0012727407738566399,-0.03572983294725418,0.003587767481803894,-0.02726796269416809,-0.008842408657073975
2025-09-20T02:19:50Z,0.0198869383434475,0.08834332244137855,0.259153392318369,-0.219096377491951,-0.25417616963386536,-0.9420144557952881,0.04250138578965594,0.01555580784022099,0.12951737493396098,0.9905436930330247,-0.023349866271018982,-0.00895007699728012,-0.049092791974544525,0.0021780282258987427,-0.02224293351173401,-0.008394241333007812
2025-09-20T02:19:50Z,0.01978828052567454,0.08776287425272775,0.2580551301431822,-0.21899951994419098,-0.25389203429222107,-0.9421135783195496,0.042228748673128945,0.015446420912639688,0.1289701184119556,0.9906284676443976,-0.035820528864860535,-0.009716283529996872,-0.05599335953593254,0.003413274884223938,-0.01741352677345276,-0.010050475597381592
2025-09-20T02:19:50Z,0.019745424620254082,0.0868807177118617,0.25689189832104686,-0.21883724629878998,-0.25334006547927856,-0.9422999024391174,0.041803443734309054,0.015344373312394551,0.1283911710200493,0.9907233441208897,-0.04915263131260872,-0.010399216786026955,-0.0601697713136673,0.003219038248062134,-0.016486287117004395,-0.012268424034118652
2025-09-20T02:19:50Z,0.01959860323141772,0.08579322385299994,0.2556051459479088,-0.21875052154064178,-0.2526243031024933,-0.9425121545791626,0.04128387165184418,0.015175731269496865,0.1277483752786126,0.9908308349867134,-0.05744351074099541,-0.010242771357297897,-0.0670214518904686,0.004961922764778137,-0.018780440092086792,-0.012512803077697754
2025-09-20T02:19:50Z,0.019550930253577497,0.08464335206816573,0.254078299303013,-0.21852858364582062,-0.2519061267375946,-0.9427558183670044,0.04072868490656597,0.015048054160102626,0.12698846633409228,0.9909534108553992,-0.058815471827983856,-0.005102112889289856,-0.08031716197729111,0.005813166499137878,-0.020970940589904785,-0.013012170791625977
2025-09-20T02:19:50Z,0.019621110074267294,0.08341819204672943,0.2521354023553747,-0.218123197555542,-0.25121474266052246,-0.9430341720581055,0.040131677123695746,0.014966557987113365,0.12602445443235838,0.9911020573694421,-0.062129031866788864,-0.003688197582960129,-0.09580844640731812,0.006588354706764221,-0.02171120047569275,-0.014231979846954346
2025-09-20T02:19:50Z,0.019688900931865507,0.08219284402895123,0.2501927884940793,-0.217719167470932,-0.2505221664905548,-0.9433116912841797,0.03953459006464785,0.014885042682303172,0.12506027950267234,0.9912493771277434,-0.06544259190559387,-0.0022742825094610453,-0.11129972338676453,0.007364928722381592,-0.022452563047409058,-0.015452444553375244
2025-09-20T02:19:50Z,0.01993874308117619,0.08077446230410613,0.24776164843163448,-0.21705712378025055,-0.24976225197315216,-0.9436657428741455,0.03883400987823029,0.014873553803457262,0.12385675443548919,0.9914283293371828,-0.07326681911945343,-0.000334703188855201,-0.12527091801166534,0.004812760278582573,-0.022877128794789314,-0.014081688597798347
2025-09-20T02:19:50Z,0.020100942899897185,0.07898665389412117,0.2446754856633054,-0.21636079251766205,-0.24880753457546234,-0.944077730178833,0.0379604805686213,0.01478539599724664,0.12232535409341262,0.9916535467191372,-0.08588103204965591,-0.005902418401092291,-0.15463201701641083,0.003952190279960632,-0.023941919207572937,-0.011827290058135986
2025-09-20T02:19:50Z,0.02020380826458443,0.0770374808681757,0.2411485313063835,-0.21564054489135742,-0.24780206382274628,-0.9445068836212158,0.037013521884363985,0.014652695693093016,0.12057316461420386,0.9919058760027778,-0.0967910885810852,-0.01211271621286869,-0.18311449885368347,0.0033718496561050415,-0.024821773171424866,-0.010390996932983398
2025-09-20T02:19:50Z,0.020168620960888964,0.0749436539027639,0.2371711905682389,-0.21496811509132385,-0.24676282703876495,-0.9449321627616882,0.03600586833416224,0.014438238714671614,0.11859392724639814,0.9921847173525761,-0.10291746258735657,-0.02010131999850273,-0.2077874094247818,0.002358749508857727,-0.02486032247543335,-0.008801043033599854
2025-09-20T02:19:50Z,0.01997996016235588,0.07276412198650827,0.23277044914009196,-0.2143620401620865,-0.24573785066604614,-0.9453368782997131,0.03496688354153273,0.014139305446090225,0.11640093512503642,0.9924858251953098,-0.10654649138450623,-0.029170740395784378,-0.22761645913124084,0.0015819668769836426,-0.023430705070495605,-0.008068978786468506
2025-09-20T02:19:50Z,0.019629423533506996,0.07057208590478406,0.22805358066994227,-0.2138485610485077,-0.24477016925811768,-0.9457041621208191,0.03393192929354429,0.013758563186390977,0.11404754731542924,0.9928003116559989,-0.1059182733297348,-0.03960806876420975,-0.23828153312206268,0.0011708587408065796,-0.020230799913406372,-0.008035004138946533
2025-09-20T02:19:50Z,0.01908409530990913,0.06839415749274445,0.2232335334522483,-0.2134961038827896,-0.24383480846881866,-0.9460253715515137,0.03291390646165737,0.01328511393764163,0.11163917466397293,0.9931147159686785,-0.10593375563621521,-0.042754583060741425,-0.24145182967185974,0.002764582633972168,-0.01771685481071472,-0.010002553462982178
2025-09-20T02:19:50Z,0.01857725620463924,0.06625340676840485,0.21838300468706254,-0.2130969613790512,-0.24293652176856995,-0.9463464021682739,0.03191031996393839,0.012837266253603642,0.10921597449963268,0.9934227915544658,-0.10409855842590332,-0.04187125712633133,-0.2409503161907196,0.003445252776145935,-0.016034260392189026,-0.01210099458694458
2025-09-20T02:19:50Z,0.018052951044430887,0.0641681717412678,0.21357956392004185,-0.21271802484989166,-0.24207474291324615,-0.9466524720191956,0.030932946852474365,0.012389332365421281,0.10681563261815241,0.9937203261420098,-0.10142894089221954,-0.04056441783905029,-0.23575013875961304,0.0035632699728012085,-0.014084413647651672,-0.01355433464050293
2025-09-20T02:19:50Z,0.017581181373447288,0.06211880075448795,0.20900633342845154,-0.21232643723487854,-0.24118925631046295,-0.9469663500785828,0.029967276940723903,0.011977559370210016,0.10453021247896055,0.993997966872415,-0.09858959168195724,-0.0344511941075325,-0.2216188907623291,0.00500139594078064,-0.010839968919754028,-0.014174342155456543
2025-09-20T02:19:50Z,0.017204266947237923,0.060142734949655344,0.2047489259336155,-0.21189862489700317,-0.24029648303985596,-0.9472890496253967,0.02902961460482872,0.011625709366998783,0.10240302986460036,0.9942513710693436,-0.09514246135950089,-0.026618298143148422,-0.20511947572231293,0.006289958953857422,-0.009995371103286743,-0.015048861503601074
2025-09-20T02:19:50Z,0.01698190888916935,0.05824426097101763,0.20080714518643505,-0.21137882769107819,-0.23940126597881317,-0.9476318359375,0.02811960486308687,0.011363045655510858,0.10043483827517652,0.9944813285416382,-0.09054090082645416,-0.020645324140787125,-0.1916447877883911,0.006328284740447998,-0.012368530035018921,-0.014976084232330322
2025-09-20T02:19:50Z,0.01681784632405021,0.05656621347711535,0.19718270488538203,-0.21085987985134125,-0.23863883316516876,-0.9479396939277649,0.027313646272620302,0.011148126703501423,0.09862549924624235,0.9946872796467838,-0.08293043076992035,-0.019635695964097977,-0.1780521124601364,0.0061848461627960205,-0.011319220066070557,-0.013503313064575195
2025-09-20T02:19:50Z,0.016647702756802277,0.05488881127310218,0.19355831545964974,-0.21034380793571472,-0.23787403106689453,-0.9482464790344238,0.026507599608839763,0.010933162292412254,0.0968157619063338,0.9948892014875115,-0.07531995326280594,-0.01862606778740883,-0.1644594371318817,0.006044268608093262,-0.010272279381752014,-0.012031614780426025
2025-09-20T02:19:50Z,0.016463283954038965,0.05338885449078725,0.19038720559483782,-0.20992353558540344,-0.23717191815376282,-0.9485154747962952,0.025787382859597283,0.010728276351952896,0.0952315277944658,0.9950632658845069,-0.06550892442464828,-0.017043858766555786,-0.14260150492191315,0.005130007863044739,-0.008911803364753723,-0.011556506156921387
2025-09-20T02:19:50Z,0.01640078268872779,0.05211148846650726,0.18768541406164682,-0.20947398245334625,-0.23657245934009552,-0.9487645030021667,0.02516914342076341,0.010602643011666552,0.09388277591091056,0.995208577283543,-0.05452264845371246,-0.004171827808022499,-0.12164491415023804,0.006277978420257568,-0.011132359504699707,-0.014578640460968018
2025-09-20T02:19:50Z,0.016552278710903482,0.05108737282959497,0.18530103588341354,-0.208880215883255,-0.23613962531089783,-0.9490032196044922,0.024665059101686225,0.010600773853856738,0.09269514138854772,0.9953325621752935,-0.04510922729969025,0.0072923218831419945,-0.11154211312532425,0.00827150046825409,-0.013831079006195068,-0.01638275384902954
2025-09-20T02:19:50Z,0.01688382161511672,0.05020129199645598,0.18308187177367966,-0.20814576745033264,-0.23579907417297363,-0.949249267578125,0.02422058549889896,0.010698022644197126,0.09159207118736988,0.9954445690354203,-0.04179273918271065,0.015107998624444008,-0.1047409176826477,0.009121492505073547,-0.013316318392753601,-0.01764160394668579
2025-09-20T02:19:50Z,0.01734855620162938,0.049342588349190704,0.1810201961396805,-0.20731335878372192,-0.23544813692569733,-0.9495185017585754,0.023783101237591794,0.010865677971234527,0.09056876739735407,0.9955469193365666,-0.04271456226706505,0.02057669870555401,-0.09920917451381683,0.009258359670639038,-0.011340022087097168,-0.016454339027404785
2025-09-20T02:19:50Z,0.017854024366673518,0.04842222630191393,0.1790254894313509,-0.20645347237586975,-0.23502297699451447,-0.9498111009597778,0.023313095714691156,0.011052561272801579,0.089578742233219,0.9956454800757459,-0.04414849355816841,0.01621217466890812,-0.09694013744592667,0.007702663540840149,-0.01106300950050354,-0.012668907642364502
2025-09-20T02:19:50Z,0.018180849231423445,0.04752533241454246,0.17706401666181767,-0.20576857030391693,-0.23461171984672546,-0.9500613808631897,0.02286289300150669,0.011152867474788275,0.08860293622492015,0.9957421015822201,-0.04306291043758392,0.0045011406764388084,-0.09619496762752533,0.006260812282562256,-0.010617181658744812,-0.008427560329437256
2025-09-20T02:19:50Z,0.018208551663686273,0.04666634662017129,0.1752013287235456,-0.20538581907749176,-0.23421350121498108,-0.9502424597740173,0.022444338617050554,0.011107891110171188,0.08767282913116527,0.9958344245597734,-0.03993447124958038,-0.006952262483537197,-0.08990450948476791,0.005870252847671509,-0.00968487560749054,-0.007008016109466553
2025-09-20T02:19:50Z,0.018087082006912236,0.04589361002579252,0.17346025818916627,-0.20516753196716309,-0.23386910557746887,-0.95037442445755,0.022074467834153212,0.01099448500328526,0.08680181778839494,0.995920244115923,-0.03541742265224457,-0.01545738335698843,-0.08074890822172165,0.005581974983215332,-0.010187268257141113,-0.008235394954681396
2025-09-20T02:19:50Z,0.01782191002875577,0.0451938549388735,0.17186298477773954,-0.20511287450790405,-0.23356123268604279,-0.9504619240760803,0.0217461562417048,0.010814849049959222,0.0860010623204954,0.9959988880176369,-0.03207805007696152,-0.018309950828552246,-0.07594180107116699,0.0059763044118881226,-0.011102452874183655,-0.010921061038970947
2025-09-20T02:19:50Z,0.017564495915825894,0.04454443795766537,0.17034475822482356,-0.20506562292575836,-0.2332829385995865,-0.9505404829978943,0.02144188778746904,0.010642586316800026,0.08523993851229865,0.9960727837651873,-0.030378688126802444,-0.017575744539499283,-0.07280787825584412,0.005856141448020935,-0.012512877583503723,-0.013454914093017578
2025-09-20T02:19:50Z,0.017274667988217852,0.04393496578484359,0.16890739914084696,-0.2050643265247345,-0.23302404582500458,-0.950604259967804,0.021158209942489018,0.01045717955946124,0.08451889611991589,0.9961422597784174,-0.02998235821723938,-0.017244990915060043,-0.0699264332652092,0.00526273250579834,-0.012768372893333435,-0.014459609985351562
2025-09-20T02:19:50Z,0.016995533034297475,0.04334913886385457,0.16754511643712408,-0.20506693422794342,-0.23277050256729126,-0.9506657719612122,0.020885218044416263,0.01027927948678715,0.0838354621035975,0.9962076332107777,-0.030016228556632996,-0.01568913646042347,-0.06708121299743652,0.005768641829490662,-0.01224587857723236,-0.015439748764038086
2025-09-20T02:19:50Z,0.01675305550014303,0.042797040329325166,0.16632989739846307,-0.2050626128911972,-0.23251600563526154,-0.9507290124893188,0.020626525108622795,0.010122927200966423,0.08322579988247071,0.9962657177509281,-0.025168610736727715,-0.016146881505846977,-0.06172364577651024,0.005238547921180725,-0.013047337532043457,-0.013997137546539307
2025-09-20T02:19:50Z,0.01650993372910755,0.04224526991095874,0.16511458652793304,-0.20505861937999725,-0.232261523604393,-0.9507920742034912,0.02036783734893824,0.009966581764755985,0.08261610227003643,0.9963233814745236,-0.020320992916822433,-0.016604626551270485,-0.056366078555583954,0.004708811640739441,-0.013848766684532166,-0.012554645538330078
2025-09-20T02:19:50Z,0.016352271242577328,0.041845455192002765,0.16395365889494817,-0.20498411357402802,-0.23213866353034973,-0.9508381485939026,0.02018089775837642,0.009859880837972833,0.08203486645795194,0.9963762894633905,-0.01450510323047638,-0.013505715876817703,-0.05643938109278679,0.006509765982627869,-0.016654834151268005,-0.012780368328094482
2025-09-20T02:19:50Z,0.01614714791199162,0.04157574269213235,0.1626858832616086,-0.20493437349796295,-0.23216228187084198,-0.950843095779419,0.020061114639748162,0.009733959407465654,0.08140033501987154,0.996431947060967,-0.009278202429413795,-0.011180026456713676,-0.06402372568845749,0.006092086434364319,-0.018569812178611755,-0.012536942958831787
2025-09-20T02:19:50Z,0.015994430521999344,0.04138472346228662,0.1612774553244389,-0.20480765402317047,-0.2322910726070404,-0.9508389234542847,0.01997894933208899,0.009636063229283509,0.08069647888835649,0.9964918031719499,-0.009457636624574661,-0.011015860363841057,-0.07000301778316498,0.005967065691947937,-0.016183003783226013,-0.012720227241516113
2025-09-20T02:19:51Z,0.01583534604053129,0.0411764219388297,0.15986977654304008,-0.20468664169311523,-0.23240293562412262,-0.9508376717567444,0.01988829539172987,0.009534433744087066,0.07999284869546117,0.9965513222157069,-0.011567775160074234,-0.011759876273572445,-0.06666667759418488,0.00464215874671936,-0.011960774660110474,-0.012387454509735107
2025-09-20T02:19:51Z,0.015687258781219973,0.04093599447623425,0.15858244034637414,-0.20457787811756134,-0.23245757818222046,-0.9508476853370667,0.019780494870894116,0.009438337750809373,0.07934916541698572,0.9966058514702767,-0.012571634724736214,-0.01110500656068325,-0.05746479332447052,0.004653945565223694,-0.009663298726081848,-0.01240551471710205
2025-09-20T02:19:51Z,0.0155065800840904,0.04064608429071984,0.15749940266255769,-0.20453910529613495,-0.23242025077342987,-0.9508651494979858,0.01964824990538064,0.009326210842151674,0.07880680034545492,0.9966525213344708,-0.013818640261888504,-0.00869737472385168,-0.04949004203081131,0.0054865628480911255,-0.010516032576560974,-0.012572169303894043
2025-09-20T02:19:51Z,0.01545998123338156,0.04038436401247178,0.1565117722210629,-0.204391211271286,-0.23238852620124817,-0.9509047269821167,0.019524246433108714,0.00928307706127773,0.07831336703341538,0.9966942866822498,-0.01217420119792223,-0.004277826752513647,-0.04419814422726631,0.0065959542989730835,-0.012413263320922852,-0.013979911804199219
2025-09-20T02:19:51Z,0.015470155809491104,0.04015657195917414,0.15564864823288987,-0.20421338081359863,-0.23236151039600372,-0.9509495496749878,0.019414328542231594,0.009270885844083905,0.07788262457191109,0.9967302883193296,-0.011193236336112022,-0.0007432245183736086,-0.041604749858379364,0.006361961364746094,-0.012892007827758789,-0.013729393482208252
2025-09-20T02:19:51Z,0.01554187552321952,0.039928403532558936,0.15480190030924737,-0.20398005843162537,-0.23233044147491455,-0.9510071873664856,0.019301754767808845,0.009289606529958645,0.07746061042455936,0.9967652724933275,-0.008574769832193851,0.002061839448288083,-0.03969378024339676,0.006150186061859131,-0.01384003460407257,-0.013654470443725586
2025-09-20T02:19:51Z,0.015603304829583328,0.039787750534007175,0.15398055071976052,-0.20376160740852356,-0.2323766052722931,-0.9510427713394165,0.019233098049855776,0.009306897937846234,0.07705140904873355,0.9967981835025064,-0.0075413500890135765,0.0019403694896027446,-0.03887883573770523,0.006539016962051392,-0.014365166425704956,-0.013469517230987549
2025-09-20T02:19:51Z,0.015705307155981865,0.03964943777973919,0.15314898554648615,-0.20350238680839539,-0.23242703080177307,-0.9510859251022339,0.019164120072924194,0.009344462355906231,0.07663750206608992,0.9968309861634688,-0.007054345682263374,0.0018831260967999697,-0.038494788110256195,0.006232649087905884,-0.014534994959831238,-0.01353222131729126
2025-09-20T02:19:51Z,0.015755902565470704,0.03947498647835037,0.15232408370574782,-0.203293114900589,-0.23244167864322662,-0.9511271119117737,0.01907908918115131,0.009355153188053496,0.07622627884176342,0.996864099234058,-0.00823883805423975,0.0014780915807932615,-0.04106016084551811,0.006031200289726257,-0.014258340001106262,-0.013189494609832764
2025-09-20T02:19:51Z,0.015794971758749183,0.0393117094842606,0.15141805198852828,-0.20307886600494385,-0.23248443007469177,-0.9511624574661255,0.019000457747946183,0.009359822286819943,0.07577452738913339,0.9968999982508476,-0.009724806994199753,-0.004317455925047398,-0.04572281613945961,0.005503177642822266,-0.014152273535728455,-0.011625051498413086
2025-09-20T02:19:51Z,0.015655933468552305,0.039114593507076,0.15038132778909985,-0.20300821959972382,-0.23252339661121368,-0.9511680006980896,0.01891228008997681,0.009273278647229778,0.0752558168689011,0.9969417718710661,-0.010020004585385323,-0.004831505473703146,-0.04825202003121376,0.005888298153877258,-0.014501497149467468,-0.01224064826965332
2025-09-20T02:19:51Z,0.015516675704095368,0.038917593283558205,0.14934459639352676,-0.20293757319450378,-0.23256228864192963,-0.9511735439300537,0.018824082656716066,0.009186722861358765,0.07473708745369745,0.9969833040515481,-0.010315203107893467,-0.005345555022358894,-0.05078122392296791,0.006273403763771057,-0.014850795269012451,-0.01285618543624878
2025-09-20T02:19:51Z,0.015377216571782678,0.038720755891262865,0.1483078135820422,-0.2028668224811554,-0.23260106146335602,-0.9511791467666626,0.01873589147132161,0.009100167381665688,0.07421833082595458,0.9970244158215206,-0.010610400699079037,-0.005859604571014643,-0.05331042781472206,0.006658390164375305,-0.015200227499008179,-0.013471782207489014
2025-09-20T02:19:51Z,0.0152844063942863,0.038493866802774876,0.14717033573651542,-0.2027316838502884,-0.23263302445411682,-0.9512001276016235,0.018631367347930448,0.009034919227083193,0.07364969860126838,0.9970691387784677,-0.010453627444803715,-0.0034800125285983086,-0.061328787356615067,0.007943600416183472,-0.016239941120147705,-0.01420682668685913
2025-09-20T02:19:51Z,0.01524237464845407,0.03823715753970262,0.14584175257371654,-0.20251040160655975,-0.2326779067516327,-0.9512363076210022,0.018510911105319095,0.008992254386020316,0.0729861490435265,0.9971205723252183,-0.013356156647205353,-0.002418327145278454,-0.06985481083393097,0.007986664772033691,-0.016283541917800903,-0.014323592185974121
