timestamp,attitude_roll,attitude_pitch,attitude_yaw,gravity_x,gravity_y,gravity_z,quaternion_x,quaternion_y,quaternion_z,quaternion_w,rotation_rate_x,rotation_rate_y,rotation_rate_z,user_acceleration_x,user_acceleration_y,user_acceleration_z
2025-09-20T02:20:13Z,-0.023642188457969355,0.028265731019538408,0.039821583398672464,-0.21739409863948822,-0.24506421387195587,-0.9448192119598389,0.014363930186122063,-0.011535947252475344,0.01973907459654642,0.9996353650973097,0.038321223109960556,0.06136832386255264,0.18263065814971924,0.00785452127456665,-0.021480843424797058,-0.012371063232421875
2025-09-20T02:20:13Z,-0.02246866425423155,0.028993141997256645,0.043482527373152134,-0.21707867085933685,-0.2450399249792099,-0.9448980093002319,0.014735922409373818,-0.01091514339896329,0.021573084755391415,0.9995990080111451,0.04009711742401123,0.06952883303165436,0.1609286069869995,0.008002698421478271,-0.02328716218471527,-0.01633352041244507
2025-09-20T02:20:13Z,-0.02116073768165513,0.029751770969037417,0.04666625502635065,-0.21653008460998535,-0.24513599276542664,-0.9449989795684814,0.015117275791935513,-0.010229084969095595,0.023169784876620633,0.9995647945114772,0.04009094834327698,0.06655401736497879,0.1432889699935913,0.004599779844284058,-0.021103322505950928,-0.015376091003417969
2025-09-20T02:20:13Z,-0.020005262826137297,0.030555128193030304,0.049527173882477904,-0.21605373919010162,-0.2453358769416809,-0.945056140422821,0.015519164876752558,-0.00961997612872566,0.024604167917852436,0.9995304908064202,0.044825632125139236,0.054510556161403656,0.1359115093946457,0.0023765116930007935,-0.018108874559402466,-0.013033092021942139
2025-09-20T02:20:13Z,-0.018965024683675214,0.03150782773043917,0.05226571045970621,-0.21565771102905273,-0.24569974839687347,-0.9450520873069763,0.015994917767483265,-0.009066343882304706,0.025976136425309816,0.9994934774949269,0.05117186903953552,0.05241565778851509,0.13624067604541779,0.002376168966293335,-0.016062140464782715,-0.014496088027954102
2025-09-20T02:20:13Z,-0.018004071384186797,0.03257015833218765,0.05490733164267993,-0.21531403064727783,-0.24618501961231232,-0.9450041055679321,0.01652463493165474,-0.008550337560011594,0.027298929864840293,0.9994541609661654,0.052802372723817825,0.05752188339829445,0.1255558729171753,0.0036581307649612427,-0.017937853932380676,-0.016488492488861084
2025-09-20T02:20:13Z,-0.016871247753707994,0.03362543963946631,0.05737518419306943,-0.21476955711841583,-0.2466963827610016,-0.9449946880340576,0.01704633998131819,-0.007948650861717279,0.028536824201966363,0.9994157687969968,0.05334034562110901,0.06772144883871078,0.11353272944688797,0.0054075270891189575,-0.018002748489379883,-0.01685953140258789
2025-09-20T02:20:13Z,-0.01553173202162667,0.03470286424857501,0.05964244044932247,-0.21398577094078064,-0.24726715683937073,-0.9450232982635498,0.017573840193742002,-0.007243844019001913,0.029676732154503793,0.9993787965463348,0.05646020546555519,0.07108151912689209,0.11157280206680298,0.003138929605484009,-0.01352742314338684,-0.013378441333770752
2025-09-20T02:20:13Z,-0.014242336804720696,0.03587921863008354,0.06195732539942052,-0.21325848996639252,-0.24792085587978363,-0.9450164437294006,0.01815011690058429,-0.0065609338000712164,0.030840256676436875,0.9993379958144123,0.060637928545475006,0.0662979781627655,0.1187787726521492,0.00040841102600097656,-0.008738502860069275,-0.008545517921447754
2025-09-20T02:20:13Z,-0.01307680946891618,0.037130906557025486,0.06446224213175414,-0.21268784999847412,-0.24860645830631256,-0.9449649453163147,0.01876501388258111,-0.005935601419594681,0.032097980728095686,0.999290939249656,0.06582975387573242,0.060334209352731705,0.12436684966087341,0.0008386969566345215,-0.009161844849586487,-0.008512377738952637
2025-09-20T02:20:13Z,-0.011931119284060373,0.03847444712826863,0.06696363304195593,-0.21213407814502716,-0.24937810003757477,-0.9448860883712769,0.01942457602693373,-0.005317151907334437,0.03335408264105056,0.9992406796003245,0.06818433851003647,0.058915894478559494,0.12573498487472534,0.0008842200040817261,-0.010467186570167542,-0.01079559326171875
2025-09-20T02:20:13Z,-0.010838235679175667,0.039899727159996845,0.06960500638220994,-0.21165889501571655,-0.25019726157188416,-0.9447761178016663,0.020124690042073668,-0.004720623286043151,0.03468000558279156,0.9991846769586566,0.07475212961435318,0.06478730589151382,0.13619384169578552,0.0018829256296157837,-0.007248044013977051,-0.010850250720977783
2025-09-20T02:20:13Z,-0.00964422451601739,0.04150927307465997,0.07250697925635462,-0.21114197373390198,-0.25113630294799805,-0.9446426033973694,0.020914011375630617,-0.004065686844200566,0.0361373146666417,0.9991196606040484,0.08518284559249878,0.06500004231929779,0.15517032146453857,0.00032266974449157715,-0.002815067768096924,-0.00916755199432373
2025-09-20T02:20:13Z,-0.00845336106803647,0.043285056070086134,0.07594879585907911,-0.21074055135250092,-0.2521210014820099,-0.9444699287414551,0.021785473547821173,-0.0034010387392639833,0.037864640492906214,0.9990395436467894,0.09634875506162643,0.07399158924818039,0.18545234203338623,0.002001345157623291,0.001275092363357544,-0.010490238666534424
2025-09-20T02:20:13Z,-0.007134710747063985,0.04538412868331468,0.08009890457413572,-0.21036508679389954,-0.25326427817344666,-0.9442477226257324,0.022814573870244714,-0.0026550915073922004,0.03994730612703831,0.9989377468482866,0.1151747852563858,0.07713999599218369,0.22485381364822388,0.0024325698614120483,0.004076793789863586,-0.009677290916442871
2025-09-20T02:20:13Z,-0.0056196272201557065,0.048159523082768316,0.08578471868775865,-0.21012185513973236,-0.2547282576560974,-0.9439080357551575,0.024175641522148454,-0.0017739945480326413,0.042799016609181124,0.9987896134944857,0.13894470036029816,0.09290290623903275,0.2875637412071228,0.001757800579071045,0.009987816214561462,-0.014644265174865723
2025-09-20T02:20:13Z,-0.0041201566587158725,0.05094346605806581,0.09146709481729026,-0.20988748967647552,-0.2561926245689392,-0.9435637593269348,0.025536444805721824,-0.000892877068634758,0.045650264715467646,0.9986306706988316,0.1627146154642105,0.1086658164858818,0.35027366876602173,0.001091882586479187,0.015899211168289185,-0.01961582899093628
2025-09-20T02:20:13Z,-0.002230578992535407,0.05439382535640175,0.09916006294689397,-0.20969462394714355,-0.2578611671924591,-0.9431520700454712,0.02721537919856745,0.0002341975558096519,0.049511070377619884,0.9984027007126008,0.19057227671146393,0.12967969477176666,0.4424465298652649,0.0006746053695678711,0.022051751613616943,-0.021007120609283447
2025-09-20T02:20:13Z,5.9225039272019904e-05,0.058394818166199534,0.10890361549184076,-0.20953351259231567,-0.2596055269241333,-0.94270920753479,0.02914838182815158,0.0016183964751102784,0.054402570498157166,0.9980922273633518,0.21549876034259796,0.16011488437652588,0.5344226360321045,0.004150643944740295,0.020947426557540894,-0.024551093578338623
2025-09-20T02:20:14Z,0.0028996186746939458,0.06288602734925863,0.12032077517828552,-0.2091750055551529,-0.261435329914093,-0.9422830939292908,0.031293801435169806,0.0033366404199291237,0.06013982072978451,0.9976936971051661,0.23321004211902618,0.19707277417182922,0.6053670048713684,0.005384400486946106,0.01315714418888092,-0.02737802267074585
2025-09-20T02:20:14Z,0.006254554309264599,0.06770495136585482,0.1329160061816969,-0.20854336023330688,-0.26329129934310913,-0.941906213760376,0.033563571679646,0.0053662534018528475,0.06647633769438378,0.9972088187750449,0.2523215711116791,0.21286611258983612,0.6556549072265625,0.002205565571784973,0.00677219033241272,-0.020488977432250977
2025-09-20T02:20:14Z,0.009703378285086333,0.07308839700457298,0.14673311844227477,-0.20803511142730713,-0.2653772830963135,-0.9414330720901489,0.036081958543443864,0.0075134786141873395,0.0734277457084134,0.9966192206039282,0.27981966733932495,0.22704583406448364,0.722729504108429,0.0015649795532226562,0.009452998638153076,-0.014948368072509766
2025-09-20T02:20:14Z,0.013329767851601948,0.0790282840323592,0.1617438365027916,-0.20755590498447418,-0.2676808834075928,-0.9408865571022034,0.03883588449162615,0.009829067643280905,0.08098137178386217,0.9959101808596601,0.3022826910018921,0.24832317233085632,0.7753337025642395,0.0044328272342681885,0.0036802589893341064,-0.01800978183746338
2025-09-20T02:20:14Z,0.017255452224181032,0.08532525821670287,0.17758401080413314,-0.20691058039665222,-0.270084947347641,-0.9403414726257324,0.041715733843532284,0.012367649664743291,0.08895791596074921,0.9950845149574251,0.30349355936050415,0.2735825777053833,0.8010411858558655,0.0066509246826171875,-0.005072534084320068,-0.02209627628326416
2025-09-20T02:20:14Z,0.02157362248533406,0.09158870925582391,0.1936790803002278,-0.2058946192264557,-0.27234604954719543,-0.9399122595787048,0.0445193735297543,0.015150781191048287,0.09707275378122171,0.9941655880182044,0.29125532507896423,0.3017546534538269,0.8059478998184204,0.004678711295127869,-0.01593148708343506,-0.022746622562408447
2025-09-20T02:20:14Z,0.02628195591438501,0.09770236380367549,0.20974678522633283,-0.2044546753168106,-0.2744191288948059,-0.9396235346794128,0.047185338984462304,0.01816414172975991,0.1051855043375931,0.9931664236782607,0.2868909537792206,0.3140265643596649,0.8041258454322815,0.007852733135223389,-0.014796704053878784,0.0013097524642944336
2025-09-20T02:20:14Z,0.030597897642002374,0.10397359689183354,0.2258425401577295,-0.20333726704120636,-0.2765800356864929,-0.939232349395752,0.049904885653114545,0.02103500732969288,0.1133059333570833,0.9920830392665397,0.2945486605167389,0.28204190731048584,0.8103073239326477,0.0006987154483795166,-0.009890854358673096,0.028781116008758545
2025-09-20T02:20:14Z,0.034238490897756144,0.11052984804038762,0.24213703559306268,-0.20283764600753784,-0.27890801429748535,-0.9386518001556396,0.0527601510789455,0.023637295146732747,0.12150955794580565,0.9909052038977475,0.30750760436058044,0.24780942499637604,0.8236217498779297,-0.0007040202617645264,-0.010330826044082642,0.03585106134414673
2025-09-20T02:20:14Z,0.03706678796269615,0.11734395601993516,0.25853458657848033,-0.20306408405303955,-0.28139883279800415,-0.937859058380127,0.05575424875467761,0.025903716845148517,0.12974131817206494,0.9896400943126992,0.30916082859039307,0.2236236184835434,0.8236002326011658,-0.002486094832420349,-0.016174912452697754,0.024503231048583984
2025-09-20T02:20:14Z,0.03898100385020864,0.12387253598408604,0.2744863290288906,-0.20401175320148468,-0.2836786210536957,-0.9369661808013916,0.05864174834036776,0.027735638483821764,0.13771944675833578,0.988344625797073,0.29864561557769775,0.20110943913459778,0.8130360841751099,-0.00647425651550293,-0.018150508403778076,0.013230204582214355
2025-09-20T02:20:14Z,0.040791576241312875,0.13043056780724988,0.29043878295993036,-0.20499929785728455,-0.28593748807907104,-0.9360635876655579,0.061524714633379794,0.02956543526505108,0.14568696621758728,0.986973030324784,0.28813040256500244,0.17859525978565216,0.802471935749054,-0.01042252779006958,-0.020146995782852173,0.0019474029541015625
2025-09-20T02:20:14Z,0.04249790299829697,0.13701641711618817,0.30639334829584636,-0.20602649450302124,-0.2881748080253601,-0.9351515173912048,0.06440294209393141,0.031392946188433246,0.15364326538969644,0.9855254495196063,0.2776152193546295,0.15608108043670654,0.791907787322998,-0.014331147074699402,-0.022165030241012573,-0.009344756603240967
2025-09-20T02:20:14Z,0.04347941235204679,0.14320813074906583,0.3221488707504839,-0.2076357901096344,-0.290051132440567,-0.9342150092124939,0.06712274565767781,0.03287288229400905,0.161465136245008,0.984044107210924,0.26475515961647034,0.1475730538368225,0.7871790528297424,-0.013345211744308472,-0.024499058723449707,-0.02199077606201172
2025-09-20T02:20:14Z,0.044184559416100104,0.14914363025410035,0.3375824587794784,-0.20939132571220398,-0.2917283773422241,-0.9333004951477051,0.06972532121465802,0.03422874872011897,0.16910553833654232,0.9825324559212598,0.2556523382663727,0.14396421611309052,0.7607467174530029,-0.010264918208122253,-0.03381866216659546,-0.02672863006591797
2025-09-20T02:20:14Z,0.044791563871433356,0.15491353849734094,0.352307058892676,-0.21107390522956848,-0.29339078068733215,-0.9323999285697937,0.07225016867742472,0.0355381244509403,0.1763807094640171,0.9810232774553531,0.25428205728530884,0.13730588555335999,0.716307520866394,-0.006787806749343872,-0.0431477427482605,-0.02403426170349121
2025-09-20T02:20:14Z,0.04531718473009945,0.1606593076459338,0.36602352775703456,-0.21263451874256134,-0.29524967074394226,-0.9314581155776978,0.07477294910207612,0.03680632882927314,0.18314612327203997,0.97954666307639,0.25844183564186096,0.12946100533008575,0.6607029438018799,-0.004679456353187561,-0.047349780797958374,-0.01767098903656006
2025-09-20T02:20:14Z,0.04560934902743238,0.16650172676199887,0.3787695228534034,-0.2142316848039627,-0.29741284251213074,-0.9304033517837524,0.0773688662107038,0.03796763096654699,0.18941617888336706,0.9781073209530902,0.2652837336063385,0.10323773324489594,0.6113860607147217,-0.004233121871948242,-0.044704437255859375,-0.0079384446144104
2025-09-20T02:20:14Z,0.0455559219281311,0.17228812202777022,0.39037012896466927,-0.21595250070095062,-0.2997894287109375,-0.9292420744895935,0.07998098628270045,0.038943157829329576,0.19510117246178107,0.9767404616736793,0.2587762176990509,0.08681175112724304,0.553568959236145,0.001914098858833313,-0.04359123110771179,-0.006428956985473633
2025-09-20T02:20:14Z,0.04538612805842437,0.177804424122871,0.40069826259187175,-0.21757347881793976,-0.3022209703922272,-0.9280755519866943,0.08248883250625536,0.039814125471510156,0.200148850619235,0.9754746938420218,0.24059857428073883,0.07550659775733948,0.4812110364437103,0.005551829934120178,-0.045144081115722656,-0.007359504699707031
2025-09-20T02:20:14Z,0.04529084870273103,0.18280364060133644,0.4094575830082179,-0.2188853770494461,-0.30456283688545227,-0.9270009398460388,0.08476128597303226,0.04062957753988615,0.2044246959243305,0.9743589325518139,0.2137555330991745,0.06791902333498001,0.3976563811302185,0.0071749091148376465,-0.047566235065460205,-0.00760728120803833
2025-09-20T02:20:14Z,0.0451084069185102,0.18712950922888588,0.4165008052777745,-0.22002777457237244,-0.3067161738872528,-0.9260199666023254,0.08674419818051797,0.041279762383321664,0.20785326257992567,0.9734312129487467,0.18031367659568787,0.0443357490003109,0.31730425357818604,0.001543477177619934,-0.04417255520820618,-0.0029150843620300293
2025-09-20T02:20:14Z,0.04469016777290858,0.190717393812125,0.4222887296534843,-0.22120533883571625,-0.30850908160209656,-0.9251434206962585,0.08841506384777713,0.04169769169213701,0.21065490520162594,0.9726605174113879,0.14699514210224152,0.01794368214905262,0.2625490725040436,-0.0022313594818115234,-0.034589022397994995,0.00018411874771118164
2025-09-20T02:20:14Z,0.043677370411422674,0.19290489582590997,0.4259520086977614,-0.22263625264167786,-0.3095645010471344,-0.9244473576545715,0.08951046057062079,0.041595033932000515,0.21239245194969014,0.9721867731013486,0.13731779158115387,0.009033980779349804,0.23973596096038818,-0.0024795979261398315,-0.03289631009101868,-0.001956939697265625
2025-09-20T02:20:14Z,0.04265595418969021,0.19508875692716177,0.42961914688597946,-0.22407084703445435,-0.3106132447719574,-0.9237487316131592,0.09060546841514079,0.04149218260766832,0.21412906429372416,0.971708703575535,0.12764045596122742,0.0001242784783244133,0.2169228494167328,-0.002724185585975647,-0.03121030330657959,-0.004100501537322998
2025-09-20T02:20:14Z,0.04162597207767585,0.19726892863303494,0.4332901509607521,-0.22550904750823975,-0.3116552531719208,-0.9230474829673767,0.09170006984990954,0.04138916486249369,0.21586472571865795,0.9712263049087175,0.11796311289072037,-0.008785423822700977,0.1941097378730774,-0.0029651373624801636,-0.029531002044677734,-0.006246745586395264
2025-09-20T02:20:14Z,0.04058735064642626,0.19944533670984121,0.4369649283022169,-0.22695080935955048,-0.31269049644470215,-0.9223437309265137,0.09279425946771758,0.041285948580134534,0.21759938984533175,0.9707394611628947,0.10828576982021332,-0.017695125192403793,0.171296626329422,-0.0032025277614593506,-0.02785852551460266,-0.00839543342590332
2025-09-20T02:20:14Z,0.03954014982787207,0.20161800525281778,0.4406437328124213,-0.2283961921930313,-0.3137190043926239,-0.9216374158859253,0.09388803025879919,0.04118256297715401,0.21933311001393796,0.970248407531476,0.09860841929912567,-0.026604827493429184,0.1484834998846054,-0.0034362971782684326,-0.02619275450706482,-0.010546743869781494
2025-09-20T02:20:14Z,0.03842993813967407,0.20375441107649633,0.4436053374089784,-0.2298070341348648,-0.3148983418941498,-0.9208842515945435,0.0949864344755276,0.04101485016625125,0.22071364845430308,0.9698354368247777,0.10530641674995422,-0.02409808337688446,0.13338401913642883,-0.004055768251419067,-0.025976181030273438,-0.01192784309387207
2025-09-20T02:20:14Z,0.03747364078692536,0.20618143030564695,0.4461948162203821,-0.23103094100952148,-0.3164372146129608,-0.9200500845909119,0.09621690662784961,0.040938970077215905,0.2219183184873083,0.9694423860868064,0.12059315294027328,-0.02103223279118538,0.12274346500635147,-0.004607468843460083,-0.025472253561019897,-0.011052429676055908
2025-09-20T02:20:14Z,0.03660319209912111,0.20887205553074104,0.4485917479651084,-0.23215270042419434,-0.31826403737068176,-0.919137179851532,0.09756976152515666,0.04092751881454639,0.22303101174998974,0.9690522355306521,0.13398350775241852,-0.013648438267409801,0.11796986311674118,-0.00318281352519989,-0.02309185266494751,-0.012627184391021729
2025-09-20T02:20:14Z,0.035974250800955156,0.21169211979357844,0.4508311505550477,-0.2330324649810791,-0.32024720311164856,-0.9182252287864685,0.09896149106629798,0.041042853222613834,0.2240767543165908,0.9686649086716481,0.13671061396598816,0.0006195893511176109,0.11024343967437744,-0.0027218014001846313,-0.020808637142181396,-0.01458054780960083
2025-09-20T02:20:14Z,0.03573779988288115,0.21447551742851104,0.4529120677225396,-0.23353058099746704,-0.3222358524799347,-0.9174026250839233,0.10029420124211062,0.04133937870877962,0.225063669333487,0.9682863264424855,0.12725643813610077,0.015593304298818111,0.10173892229795456,-0.00229567289352417,-0.02003142237663269,-0.01611417531967163
2025-09-20T02:20:14Z,0.03578146797111899,0.21699035514584897,0.4548198613716163,-0.23374685645103455,-0.32402339577674866,-0.9167176485061646,0.10146806395849267,0.04173560631181421,0.22598067458811733,0.9679333862338754,0.1135810911655426,0.03105923719704151,0.0890643447637558,-0.0020091980695724487,-0.02067166566848755,-0.01756274700164795
2025-09-20T02:20:14Z,0.036225087003238524,0.21918118279689724,0.45648973220658884,-0.23356397449970245,-0.3255770206451416,-0.9162136316299438,0.1024438567404893,0.0422792062018758,0.2268034908719055,0.9676145138666183,0.09867661446332932,0.04344574362039566,0.08178336918354034,-0.0034414082765579224,-0.018565386533737183,-0.014114141464233398
2025-09-20T02:20:14Z,0.03688530298798955,0.2210809210411556,0.4580245548758443,-0.23316317796707153,-0.3269004821777344,-0.9158444404602051,0.10325600820899297,0.04288958324800798,0.22757304058109593,0.967320648941963,0.08105830103158951,0.04767850413918495,0.07545853406190872,-0.004407539963722229,-0.01652786135673523,-0.0106697678565979
2025-09-20T02:20:14Z,0.03753841785666331,0.22263833237008335,0.45948578480562885,-0.23275604844093323,-0.3279317319393158,-0.9155792593955994,0.10390391226602243,0.043455476191212705,0.22830792844959721,0.9670528208122786,0.0672663226723671,0.04957256093621254,0.06799351423978806,-0.004011496901512146,-0.01791486144065857,-0.008381903171539307
2025-09-20T02:20:14Z,0.0382825915056059,0.22396402375927782,0.46066457298310115,-0.23222947120666504,-0.32882586121559143,-0.915392279624939,0.10443464334296863,0.04402546979398,0.2289119264406147,0.9668270144065858,0.05652720108628273,0.049233946949243546,0.048961639404296875,-0.003005877137184143,-0.023163139820098877,-0.008423388004302979
2025-09-20T02:20:14Z,0.039167392218242524,0.22510307796605433,0.4612949848101061,-0.2315078228712082,-0.3296932876110077,-0.9152630567550659,0.10487048214999996,0.044614214158752774,0.2292590485946444,0.9666705635362582,0.04939847066998482,0.04857661947607994,0.013260334730148315,-0.003107517957687378,-0.03052884340286255,-0.007686734199523926
2025-09-20T02:20:14Z,0.040167941992114764,0.22602680371945869,0.4611620973169,-0.2305886596441269,-0.33056414127349854,-0.9151809811592102,0.10520570662448935,0.04519469996133806,0.22924435843155852,0.9666106197497901,0.04097383841872215,0.045841410756111145,-0.020818069577217102,-0.004465952515602112,-0.031932055950164795,-0.0048989057540893555
2025-09-20T02:20:14Z,0.04107812192625776,0.22674985664519637,0.46039902817390826,-0.2296762615442276,-0.33141717314720154,-0.9151018857955933,0.10546862465716055,0.04567561268413116,0.22892126963576478,0.9666359630665186,0.03503389656543732,0.030468951910734177,-0.05171245336532593,-0.006859287619590759,-0.03097626566886902,0.0008238554000854492
2025-09-20T02:20:14Z,0.041618891988405904,0.22742856257100127,0.4585170658822637,-0.22897028923034668,-0.3325207233428955,-0.9148784279823303,0.10577835721950367,0.045913593769449396,0.22803819297634198,0.96679958840563,0.03443516418337822,0.011097028851509094,-0.08704924583435059,-0.005919039249420166,-0.033898115158081055,-0.0015150904655456543
2025-09-20T02:20:14Z,0.04216104420952866,0.228106253822553,0.4566344396029207,-0.22826234996318817,-0.3336227834224701,-0.9146541357040405,0.10608798199254403,0.04615152560810962,0.22715490807969493,0.9669622508640654,0.03383643552660942,-0.008274894207715988,-0.12238603830337524,-0.004980802536010742,-0.03682151436805725,-0.003854990005493164
2025-09-20T02:20:14Z,0.04257686436589718,0.22865307826453504,0.4538846265012046,-0.2275647670030594,-0.33483079075813293,-0.9143864512443542,0.10636913738433103,0.04626718215764469,0.22584590061975118,0.9672324271677347,0.026331108063459396,-0.013339119963347912,-0.150697261095047,-0.0044372230768203735,-0.03436097502708435,-0.005949139595031738
2025-09-20T02:20:14Z,0.04308056693644623,0.22895204061114813,0.4504302361114145,-0.22669745981693268,-0.335996150970459,-0.9141744375228882,0.10653722873582792,0.04635988281291356,0.22420106961075845,0.9675921155268175,0.017215585336089134,-0.018179770559072495,-0.18557363748550415,-0.003262057900428772,-0.03565263748168945,-0.0063381195068359375
2025-09-20T02:20:14Z,0.04367107938966015,0.22900758014236616,0.446168354953706,-0.22564707696437836,-0.3371487259864807,-0.9140099287033081,0.1065970976488673,0.04642461368485153,0.22217004174088834,0.9680507884041176,0.0028612641617655754,-0.01441501546651125,-0.2258351445198059,-0.0013439655303955078,-0.036575138568878174,-0.009465515613555908
2025-09-20T02:20:14Z,0.04462522013370922,0.22875056933174392,0.4410745581529982,-0.22415384650230408,-0.33823132514953613,-0.9139773845672607,0.10648555248743283,0.04658746393338295,0.21975511624943914,0.9686062819243704,-0.010608410462737083,-0.00833309069275856,-0.26701995730400085,2.512335777282715e-05,-0.036356061697006226,-0.012688517570495605
2025-09-20T02:20:14Z,0.0458164665096589,0.22818290030496213,0.43510086869330056,-0.2223239690065384,-0.3392567038536072,-0.9140442609786987,0.10621961833004061,0.04678638554912775,0.21692521573083295,0.9692635358034177,-0.023731425404548645,-0.00832616351544857,-0.3075937032699585,-0.0011339783668518066,-0.032367438077926636,-0.011130988597869873
2025-09-20T02:20:14Z,0.04696531590653955,0.22731922888178865,0.4285875712441836,-0.22045135498046875,-0.3401491343975067,-0.9141661524772644,0.10582925728096738,0.046907296222183384,0.21382917848966218,0.9699880674285045,-0.03274828940629959,-0.02555439993739128,-0.3270355761051178,-0.003964036703109741,-0.02383512258529663,-0.005793511867523193
2025-09-20T02:20:14Z,0.04768231468031944,0.22632315154789134,0.4218596231594935,-0.2189328968524933,-0.34097200632095337,-0.9142245054244995,0.10542694621571903,0.04679676001227895,0.21060321143889948,0.9707426718104305,-0.040333375334739685,-0.047760047018527985,-0.3308268189430237,-0.009878009557723999,-0.021508753299713135,-0.011201918125152588
2025-09-20T02:20:15Z,0.04837370260685976,0.2251908029005574,0.41494766905927744,-0.2173999696969986,-0.34171348810195923,-0.9143134951591492,0.10496572951905998,0.046653612980648004,0.2072833993625451,0.9715138148643764,-0.03957059606909752,-0.03913888707756996,-0.3387942314147949,-0.0038139820098876953,-0.021861374378204346,-0.013460040092468262
2025-09-20T02:20:15Z,0.04917366811714874,0.2241433202526957,0.40792976870784126,-0.21574266254901886,-0.3425528407096863,-0.9143919348716736,0.10453744296772732,0.0465699082538098,0.20391452727764597,0.9722766626526115,-0.03375430032610893,-0.04010336101055145,-0.3425929546356201,-0.00022695958614349365,-0.014363020658493042,0.0005696415901184082
2025-09-20T02:20:15Z,0.04980733782527189,0.22321540274209514,0.40094948230771643,-0.2142314314842224,-0.34348464012145996,-0.9143977165222168,0.10418386431025346,0.04642252861720504,0.20055213198803729,0.9730207266783923,-0.027332095429301262,-0.04811834543943405,-0.33943262696266174,0.0026890188455581665,-0.007803857326507568,0.010526418685913086
2025-09-20T02:20:15Z,0.05027024938505194,0.2223803223705686,0.394009429199341,-0.21287059783935547,-0.3444841206073761,-0.914339542388916,0.10389165713178457,0.046206047250281865,0.19719752113652025,0.9737476656330085,-0.02504129335284233,-0.056210000067949295,-0.34249675273895264,0.0009591132402420044,-0.009713053703308105,0.0036066770553588867
2025-09-20T02:20:15Z,0.0506789887610166,0.2214753393662524,0.38692963582283724,-0.21152657270431519,-0.34544962644577026,-0.9142872095108032,0.1035735524443067,0.04595195209133542,0.19376904066422002,0.9744815586133044,-0.026592057198286057,-0.06391570717096329,-0.3482499420642853,-0.002054452896118164,-0.01325109601020813,-0.008403897285461426
2025-09-20T02:20:15Z,0.050753613111518596,0.22061389249486718,0.379818339982369,-0.21047145128250122,-0.34645599126815796,-0.9141498804092407,0.10330868545616743,0.045540166199379915,0.19030505827777242,0.975211470298344,-0.025977453216910362,-0.08748863637447357,-0.3408992290496826,-0.011049911379814148,-0.01709878444671631,-0.020139873027801514
2025-09-20T02:20:15Z,0.05046073838966316,0.21993637732207114,0.373027452652013,-0.20978690683841705,-0.34754183888435364,-0.9138950109481812,0.10315916817928937,0.044984732262414694,0.18697609923746247,0.9758967499274971,-0.01576380990445614,-0.07794779539108276,-0.33206912875175476,-0.007194146513938904,-0.016496390104293823,-0.022600650787353516
2025-09-20T02:20:15Z,0.05016320395418952,0.21926080622246685,0.36623742314890007,-0.20909471809864044,-0.3486231565475464,-0.9136417508125305,0.1030084154326653,0.04442876348699676,0.18364493038586382,0.9765704627282655,-0.005550164729356766,-0.06840695440769196,-0.3232390284538269,-0.0033460110425949097,-0.015898585319519043,-0.025059878826141357
2025-09-20T02:20:15Z,0.05033476246511413,0.2189011341955237,0.35973774612092296,-0.2080090492963791,-0.34991133213043213,-0.9133971333503723,0.1029608693117112,0.04414610563492482,0.18047820744140605,0.9771784782330464,0.0025179022923111916,-0.04731198400259018,-0.3085619807243347,0.002993479371070862,-0.005785763263702393,-0.006699085235595703
2025-09-20T02:20:15Z,0.05080049461326123,0.2187691934952955,0.3535165470623078,-0.2066882699728012,-0.3513302803039551,-0.9131522178649902,0.1029918067599023,0.04404195789510085,0.17746136288106162,0.9777322670176759,0.012306536547839642,-0.04193532466888428,-0.2907187044620514,0.006426885724067688,0.0018574893474578857,0.007971227169036865
2025-09-20T02:20:15Z,0.05120930471784417,0.2187236986889798,0.34771810004960735,-0.20547306537628174,-0.35271769762039185,-0.9128915667533875,0.1030610944867488,0.04393928995392619,0.17464689807567937,0.9782361913531628,0.011117232032120228,-0.036742016673088074,-0.2702942490577698,0.007513225078582764,0.002273768186569214,0.0015421509742736816
2025-09-20T02:20:15Z,0.05173783743045108,0.21867227626726032,0.3423612120809305,-0.2042052298784256,-0.3539866805076599,-0.9126848578453064,0.10310776226876289,0.04391744563280446,0.17205321242475283,0.9786917553938222,0.009119074791669846,-0.027906568720936775,-0.2503449320793152,0.005800694227218628,-0.007302910089492798,-0.0154837965965271
2025-09-20T02:20:15Z,0.05221278371508444,0.2186555725431144,0.3373767132337683,-0.20303520560264587,-0.35519179701805115,-0.9124776721000671,0.10316842448698149,0.04389147891585856,0.16963797494861113,0.9791080978980822,0.014635752886533737,-0.02350907027721405,-0.23953266441822052,0.0009503215551376343,-0.019941627979278564,-0.028121650218963623
2025-09-20T02:20:15Z,0.05285374354178392,0.21875877337893315,0.33251892539506356,-0.2017289102077484,-0.3564702868461609,-0.9122688174247742,0.10327171403395483,0.04396301929359058,0.16729282617257862,0.9794973957507346,0.02659965120255947,-0.022262616083025932,-0.22702080011367798,0.0009182393550872803,-0.02099892497062683,-0.020511329174041748
2025-09-20T02:20:15Z,0.053371028675217494,0.2191055577225786,0.3277769540679351,-0.20055195689201355,-0.357936292886734,-0.9119542241096497,0.10350305540231716,0.04399909312284309,0.16499816474827209,0.9798605072343822,0.03484585881233215,-0.034363389015197754,-0.22626684606075287,0.0012184083461761475,-0.02150791883468628,-0.0073934197425842285
2025-09-20T02:20:15Z,0.053561223889312705,0.21963796544071285,0.32309225057346475,-0.19968025386333466,-0.3595518171787262,-0.9115098714828491,0.10385155062567057,0.04389152559689756,0.1627146958642654,0.9802102447215516,0.04290947690606117,-0.05083993077278137,-0.22244541347026825,0.0012873709201812744,-0.01937490701675415,2.4199485778808594e-05
2025-09-20T02:20:15Z,0.05347183802008072,0.2202389567378095,0.3184629506055988,-0.19906781613826752,-0.3612119257450104,-0.9109873175621033,0.10425497420943274,0.0436536752335931,0.16044343028749566,0.9805523663077232,0.04323525354266167,-0.04829610511660576,-0.2208056002855301,0.005960613489151001,-0.015536874532699585,-0.004132330417633057
2025-09-20T02:20:15Z,0.05369234276142043,0.22079621774806055,0.3140631456657715,-0.19820243120193481,-0.3627738058567047,-0.9105553030967712,0.10460686010178727,0.04357484272971895,0.158299968859785,0.9808667806272297,0.035664286464452744,-0.027694357559084892,-0.19953668117523193,0.011683613061904907,-0.005876094102859497,-0.007961690425872803
2025-09-20T02:20:15Z,0.054227962060246555,0.22116912877051584,0.3101772548682423,-0.19712170958518982,-0.36404332518577576,-0.9102832078933716,0.10483255526111694,0.04366234855273883,0.15642372736981455,0.9811397248502138,0.022791776806116104,-0.007113434374332428,-0.1799476146697998,0.014060437679290771,-0.006026953458786011,-0.013018667697906494
2025-09-20T02:20:15Z,0.05513409501601342,0.2212978234749124,0.3064254104904251,-0.19571645557880402,-0.36505889892578125,-0.9101796746253967,0.10490743819490778,0.043919823649567244,0.15463108114974988,0.9814043954866107,0.009364468045532703,0.019534068182110786,-0.18024024367332458,0.013036444783210754,-0.015013426542282104,-0.020847022533416748
2025-09-20T02:20:15Z,0.056496311746613924,0.22124640293839345,0.3026525662007818,-0.19388596713542938,-0.36591556668281555,-0.9102274775505066,0.1048607581548672,0.044386706449283,0.15285065592365998,0.9816672315496248,0.005332134664058685,0.02432076819241047,-0.1856745034456253,0.006663426756858826,-0.022042125463485718,-0.01768261194229126
2025-09-20T02:20:15Z,0.0573345280907585,0.2212292620878147,0.29870547222165084,-0.19250242412090302,-0.3668422996997833,-0.9101480841636658,0.10487647183530306,0.04458997937520306,0.1509568643892775,0.9819493404448166,0.010203232988715172,-0.0026273932307958603,-0.18774954974651337,0.001422598958015442,-0.022707194089889526,-0.010259389877319336
2025-09-20T02:20:15Z,0.05817265344800528,0.2212089034902857,0.294758421022104,-0.1911153495311737,-0.3677637577056885,-0.9100685119628906,0.10489180029162802,0.0447930809481158,0.14906251439426565,0.982227829251311,0.015074331313371658,-0.02957555465400219,-0.18982459604740143,-0.003821760416030884,-0.023377537727355957,-0.0028363466262817383
2025-09-20T02:20:15Z,0.05832271459264288,0.22123668518911943,0.2907654607097804,-0.19034449756145477,-0.36873680353164673,-0.9098363518714905,0.10498364390528694,0.04465925206568173,0.14710927356615688,0.9825185423319386,0.010717370547354221,-0.048958711326122284,-0.1976129412651062,-0.002441108226776123,-0.023344963788986206,-0.002545595169067383
2025-09-20T02:20:15Z,0.05809580586374059,0.22110104825369223,0.28661236791973715,-0.1898835152387619,-0.3695985972881317,-0.9095829129219055,0.10502589286125347,0.04432023676066597,0.14505591527379377,0.9828346616450928,-0.0011280262842774391,-0.06369265913963318,-0.20424747467041016,0.0006696134805679321,-0.020656198263168335,-0.002629697322845459
2025-09-20T02:20:15Z,0.057769581906829175,0.2206918548079662,0.28226283645189,-0.18947090208530426,-0.370258629322052,-0.9094005227088928,0.1049440060365386,0.04390341534412658,0.1428983480819812,0.9831781102994299,-0.01529308408498764,-0.06641161441802979,-0.21890804171562195,0.0054197758436203,-0.0219135582447052,-0.004119217395782471
2025-09-20T02:20:15Z,0.05750725477935302,0.22006443704235218,0.27751426746216584,-0.1889258772134781,-0.37081387639045715,-0.909287691116333,0.10475756466537257,0.04348299538385869,0.14054571186039183,0.9835557467911596,-0.026354998350143433,-0.06593790650367737,-0.24306519329547882,0.005530208349227905,-0.02465158700942993,-0.004396975040435791
2025-09-20T02:20:15Z,0.05719940181115194,0.2191975595827827,0.2724013578028188,-0.1883518397808075,-0.3712362051010132,-0.9092344641685486,0.10446277899788095,0.043006464549645705,0.1380089325627472,0.9839672215732809,-0.031965889036655426,-0.0733226016163826,-0.25474441051483154,0.0024383366107940674,-0.020511776208877563,-0.0016432404518127441
2025-09-20T02:20:15Z,0.05682758906589053,0.21828836038700145,0.26731767660056666,-0.18783345818519592,-0.3716096580028534,-0.9091891050338745,0.10414908557492665,0.042499009013284565,0.13548184321242834,0.984373651510102,-0.03293870389461517,-0.06518974900245667,-0.23947720229625702,0.0009576976299285889,-0.014879614114761353,-0.006342291831970215
2025-09-20T02:20:15Z,0.056680051162030884,0.21749195992571352,0.2627039844572926,-0.18718548119068146,-0.3719708025455475,-0.9091750979423523,0.10386424409888947,0.0421353956200292,0.13319754882577828,0.9847310223010245,-0.025871053338050842,-0.053976599127054214,-0.21490712463855743,0.001604914665222168,-0.012327402830123901,-0.010445356369018555
2025-09-20T02:20:15Z,0.05664706632872026,0.2168712558656569,0.25851268275279277,-0.18650265038013458,-0.37238818407058716,-0.9091445207595825,0.1036485324728127,0.04186258997704904,0.13112756462102013,0.985043119749153,-0.016183167695999146,-0.04491553455591202,-0.19096210598945618,0.003518521785736084,-0.012702107429504395,-0.015275955200195312
2025-09-20T02:20:15Z,0.05679306482455822,0.21639849549210602,0.25488623992947035,-0.1857510805130005,-0.3728047311306,-0.9091277122497559,0.10348174183646018,0.04171737450750445,0.12934545286668098,0.9853023697330426,-0.014864636585116386,-0.022150523960590363,-0.16011863946914673,0.006155416369438171,-0.007173806428909302,-0.02060025930404663
2025-09-20T02:20:15Z,0.05706681306018232,0.21591825352153055,0.2519132615659761,-0.1849905550479889,-0.37306150794029236,-0.9091774225234985,0.10328930823331305,0.04166914712637763,0.1278913333553039,0.9855144165143481,-0.015602782368659973,-0.010407712310552597,-0.125518798828125,0.003929272294044495,-0.0019384324550628662,-0.018005728721618652
2025-09-20T02:20:15Z,0.05728736799604429,0.2155532933371969,0.2498383177328741,-0.1844310462474823,-0.37321317195892334,-0.9092288613319397,0.10313848870612854,0.041648622250135145,0.12687750552739877,0.9856621233133085,-0.008898541331291199,-0.006766149774193764,-0.07360544800758362,0.0024873465299606323,0.0028936266899108887,-0.012709259986877441
2025-09-20T02:20:15Z,0.05737646512598325,0.21549673722998883,0.2488344368746717,-0.18417853116989136,-0.3733939528465271,-0.9092057943344116,0.10312585622849077,0.041637360637454726,0.1263869207597985,0.9857269279665914,0.008716249838471413,-0.004189569037407637,-0.020854715257883072,0.003347054123878479,0.0029058754444122314,-0.010983705520629883
2025-09-20T02:20:15Z,0.05742091477132695,0.2158228840860726,0.24895280699715355,-0.18416520953178406,-0.37365925312042236,-0.9090995192527771,0.1032814472545019,0.0416849904088105,0.1264499894441506,0.9857005615364629,0.021064432337880135,0.012861743569374084,0.030945833772420883,0.0053104013204574585,0.00386810302734375,-0.013221204280853271
2025-09-20T02:20:15Z,0.05772175378964745,0.21652154799794007,0.2507716761233417,-0.1842150092124939,-0.37386631965637207,-0.909004271030426,0.10356889755976703,0.0419694862237116,0.12736712784679352,0.9855402356187511,0.02820688486099243,0.03157878667116165,0.08438707888126373,0.005247578024864197,0.003783881664276123,-0.013968884944915771
2025-09-20T02:20:15Z,0.05802131191782873,0.21722076886417135,0.25259061459529114,-0.18426527082920074,-0.37407323718070984,-0.9089089632034302,0.103856255077844,0.042253928513991026,0.1282841371391353,0.9853788850090457,0.03534933924674988,0.05029582977294922,0.13782833516597748,0.005185157060623169,0.0036994218826293945,-0.014716684818267822
2025-09-20T02:20:15Z,0.058472922087017744,0.21817055392894588,0.2558254826087101,-0.1844201683998108,-0.37417641282081604,-0.9088350534439087,0.10422666816571087,0.042703011419821406,0.12990830142235657,0.98510755157308,0.0431939959526062,0.07140002399682999,0.19573909044265747,0.005844041705131531,0.005601227283477783,-0.013578534126281738
2025-09-20T02:20:15Z,0.058963433951778395,0.21929181278098575,0.2603448667066574,-0.1847555935382843,-0.37413331866264343,-0.9087846875190735,0.10465005452948588,0.04325046889659745,0.13216788929557388,0.9847381583800946,0.04421890527009964,0.08371640741825104,0.2524568438529968,0.006828635931015015,0.008669793605804443,-0.014628350734710693
2025-09-20T02:20:15Z,0.059730868990440236,0.22045687127280858,0.26607385364656,-0.18503569066524506,-0.3738441467285156,-0.9088466763496399,0.10504782476257567,0.044002650273733214,0.135036883829869,0.9842731095118917,0.03949878737330437,0.1114400178194046,0.3057456314563751,0.009342566132545471,0.005321800708770752,-0.02188783884048462
2025-09-20T02:20:15Z,0.06089034520087115,0.2215798635907886,0.2727564396325325,-0.18510670959949493,-0.3732888400554657,-0.9090604782104492,0.1053728911426958,0.044997717481518595,0.13839407401870985,0.9837269235241025,0.035121627151966095,0.14983326196670532,0.3457384705543518,0.010037422180175781,-0.003326594829559326,-0.02542632818222046
2025-09-20T02:20:15Z,0.062339767228252574,0.2227463492757209,0.28011400829532135,-0.18501320481300354,-0.3726067543029785,-0.9093592762947083,0.10567766174036239,0.046176464998561144,0.14209710838428372,0.98311158786415,0.039606574922800064,0.1639033406972885,0.3704645335674286,0.00563502311706543,-0.01221543550491333,-0.017419815063476562
2025-09-20T02:20:15Z,0.06392288923050868,0.22415115616233466,0.2878569913821783,-0.1848514825105667,-0.37203866243362427,-0.9096247553825378,0.10607338982387238,0.047460577862807767,0.14599645645154147,0.9824362257589585,0.051618706434965134,0.1649317592382431,0.39078226685523987,0.003819212317466736,-0.01713883876800537,-0.011909246444702148
2025-09-20T02:20:15Z,0.06551562801201044,0.22582344906630034,0.2959635991891532,-0.18472960591316223,-0.37161463499069214,-0.9098228216171265,0.10658246988830489,0.04879142235690275,0.15007471567744846,0.9817011289076695,0.06555520743131638,0.1692689061164856,0.4079647362232208,0.005714863538742065,-0.018134653568267822,-0.010403573513031006
2025-09-20T02:20:15Z,0.06706372969327841,0.2277986564739279,0.3044023080121273,-0.18469096720218658,-0.37137266993522644,-0.9099294543266296,0.10722618866769568,0.050145055475853705,0.1543133866260429,0.980905386171622,0.07783867418766022,0.16736207902431488,0.4225114583969116,0.006106138229370117,-0.01919412612915039,-0.005116820335388184
2025-09-20T02:20:15Z,0.06842615141380261,0.23001734036448143,0.31292755691528634,-0.1848229467868805,-0.37131720781326294,-0.9099252820014954,0.1079921331386566,0.05143675335195975,0.15858357170258722,0.9800730523241928,0.08474163711071014,0.1592785269021988,0.4193437397480011,0.0062366873025894165,-0.023584336042404175,-0.006125152111053467
2025-09-20T02:20:15Z,0.0697357769065687,0.2322984418182714,0.32139878073936784,-0.1849783957004547,-0.37131980061531067,-0.9098926186561584,0.1087851138259989,0.052711654965082025,0.16282183564064903,0.9792222970837237,0.08238767832517624,0.16354261338710785,0.4141477048397064,0.0067260414361953735,-0.02355995774269104,-0.007310926914215088
2025-09-20T02:20:15Z,0.07092681019578005,0.23450398550808277,0.3297778444318292,-0.18520817160606384,-0.37126654386520386,-0.9098676443099976,0.10954438010576853,0.053924847816560026,0.1670047413724747,0.9783667813392402,0.075693279504776,0.14952009916305542,0.4096660912036896,0.0034459680318832397,-0.02120763063430786,-0.0030510425567626953
2025-09-20T02:20:15Z,0.07206071608308372,0.23651536987994906,0.3379857859239402,-0.1854420006275177,-0.3710712194442749,-0.9098996520042419,0.11020975705688202,0.05509192099132407,0.17109607904921986,0.9775196813839405,0.06662251055240631,0.1555595099925995,0.39645352959632874,0.006563961505889893,-0.02365747094154358,-0.005913496017456055
2025-09-20T02:20:16Z,0.07320671158443412,0.23838697613011187,0.34589432361630834,-0.1856006383895874,-0.370814710855484,-0.9099718928337097,0.11080621648229955,0.05624280635689946,0.17503753967235136,0.9766885311496141,0.05848266929388046,0.14426566660404205,0.38574329018592834,0.004586905241012573,-0.021980226039886475,-0.0017992854118347168
2025-09-20T02:20:16Z,0.07413319140786476,0.2398267203505897,0.35350665395078545,-0.18588893115520477,-0.3702363073825836,-0.910148561000824,0.11121220200638529,0.05723872489315843,0.17881590100273562,0.9758997552045907,0.04450397193431854,0.13792231678962708,0.3739713430404663,0.0033130645751953125,-0.022951185703277588,-0.004440426826477051
2025-09-20T02:20:16Z,0.07504869118076929,0.24127328912542437,0.361120303811059,-0.18617239594459534,-0.369655966758728,-0.9103264808654785,0.11161640755839758,0.05823372768470837,0.18259139120573967,0.9750953177021844,0.03052527830004692,0.1315789669752121,0.3621993958950043,0.002034395933151245,-0.023924142122268677,-0.007080376148223877
2025-09-20T02:20:16Z,0.07589532078351181,0.24239382694102626,0.3683755021646054,-0.18644455075263977,-0.36886531114578247,-0.9105914831161499,0.11187247128491853,0.059149996649710344,0.18618295579093894,0.9743313668988899,0.022004734724760056,0.12402116507291794,0.3476809859275818,0.0024618208408355713,-0.024257957935333252,-0.007458150386810303
2025-09-20T02:20:16Z,0.07672093632106236,0.24333430731986017,0.3753829476765546,-0.18668287992477417,-0.36796846985816956,-0.9109054207801819,0.11204491164619071,0.06002842177944178,0.18964863514016547,0.9735891558090541,0.011849815025925636,0.11739054322242737,0.3372953236103058,-0.0007536113262176514,-0.01915988326072693,-0.004542350769042969
2025-09-20T02:20:16Z,0.07699600097571899,0.24404759304192666,0.38256015074368216,-0.18742607533931732,-0.3668198883533478,-0.9112160205841064,0.11214980812840734,0.06062953425137562,0.1931617451554744,0.9728489051137664,0.004516989924013615,0.08421869575977325,0.3666849434375763,-0.006453916430473328,-0.005230545997619629,0.0032371878623962402
2025-09-20T02:20:16Z,0.07654491459079965,0.2448586058977747,0.3904269427843129,-0.18891175091266632,-0.3655795454978943,-0.9114076495170593,0.11234980432977311,0.060927107418615616,0.19696712539093203,0.972043865843925,0.011669771745800972,0.06582159548997879,0.39151206612586975,-0.0018010437488555908,-0.010689854621887207,-0.0029639005661010742
2025-09-20T02:20:16Z,0.07587130077969727,0.24588049713481555,0.3984589760548488,-0.19061164557933807,-0.36447858810424805,-0.9114946722984314,0.11266904795146325,0.06114865389495559,0.20083798705078218,0.9712005766006402,0.025364847853779793,0.06696765869855881,0.3917311131954193,0.004421219229698181,-0.0203285813331604,-0.012482047080993652
2025-09-20T02:20:16Z,0.07544607479057765,0.24710201620011896,0.40640902239721965,-0.19206315279006958,-0.3635689914226532,-0.9115532636642456,0.11306241716785048,0.061509176193438056,0.20468028066850377,0.9703295153182395,0.03496319055557251,0.08047468215227127,0.3929141163825989,0.006459668278694153,-0.018665432929992676,-0.014843285083770752
2025-09-20T02:20:16Z,0.07507538435536859,0.24843865342747876,0.4147627401549619,-0.19350239634513855,-0.3626526892185211,-0.9116138815879822,0.11349236909545424,0.061934618476667674,0.20871786506038004,0.9693917277858226,0.03588324040174484,0.0887865349650383,0.4156496822834015,0.002804398536682129,-0.010829329490661621,-0.011372506618499756
2025-09-20T02:20:16Z,0.07483608109501283,0.2498349532157688,0.42341735437674916,-0.19484221935272217,-0.36170512437820435,-0.911704957485199,0.11392625004151674,0.062451560891245025,0.21290432027782083,0.9683967728335621,0.0395565927028656,0.09867823123931885,0.4240029454231262,0.003537118434906006,-0.015411734580993652,-0.01083904504776001
2025-09-20T02:20:16Z,0.07476727696389224,0.2513567140448787,0.43189338919312015,-0.19598816335201263,-0.36090683937072754,-0.9117757081985474,0.11440564846944892,0.06305870712009826,0.21700976298361446,0.9673891151183953,0.040084660053253174,0.10660332441329956,0.4029475748538971,0.0032116472721099854,-0.025130510330200195,-0.011022984981536865
2025-09-20T02:20:16Z,0.07492639906656191,0.2528173925636978,0.43986545757012563,-0.19684498012065887,-0.36017507314682007,-0.9118804931640625,0.11484315805037705,0.0637457265977081,0.22087961884698082,0.9664159387747171,0.03989110514521599,0.10382528603076935,0.3811764419078827,-0.00018993020057678223,-0.02581566572189331,-0.007487773895263672
2025-09-20T02:20:16Z,0.07524314462060093,0.2542275388931825,0.4475975406945397,-0.19751116633415222,-0.3594527840614319,-0.9120213985443115,0.11524252535956848,0.06449401054485035,0.22463820989131883,0.9654518257998274,0.04133092984557152,0.11762268096208572,0.3738973140716553,-0.00027176737785339355,-0.024154335260391235,-0.010543406009674072
2025-09-20T02:20:16Z,0.07577289105965966,0.25564911159194875,0.4550612080410422,-0.19793610274791718,-0.35880354046821594,-0.9121848940849304,0.11562771344899304,0.0653347095224606,0.22827564851764096,0.9644955516473799,0.04557209461927414,0.13025584816932678,0.3484712541103363,0.00037214159965515137,-0.03325176239013672,-0.012856364250183105
2025-09-20T02:20:16Z,0.07678294288541741,0.25717815402628386,0.4618014086275942,-0.19782833755016327,-0.3584316670894623,-0.9123544692993164,0.11602837166920864,0.06638046087522892,0.23158902857496247,0.9635856824625887,0.05125477537512779,0.13729318976402283,0.3136981129646301,0.0013261288404464722,-0.03576728701591492,-0.01366335153579712
2025-09-20T02:20:16Z,0.07784205674332736,0.258508813525985,0.4679476004619571,-0.19759133458137512,-0.35803160071372986,-0.912562906742096,0.11634172045502,0.06739621409277606,0.23461557565300759,0.962744898935549,0.04280070587992668,0.12626038491725922,0.30033090710639954,-0.00029896199703216553,-0.030460864305496216,-0.009693443775177002
2025-09-20T02:20:16Z,0.07889304751226082,0.259845706026608,0.4740944962634478,-0.1973513662815094,-0.3576330840587616,-0.9127710461616516,0.11665377805561666,0.06841121940534088,0.23763954714803473,0.9618934852560395,0.03434663265943527,0.1152275800704956,0.28696373105049133,-0.0019269883632659912,-0.02515283226966858,-0.005723893642425537
2025-09-20T02:20:16Z,0.07957496818622911,0.2610015346517838,0.47975264097742354,-0.19737960398197174,-0.3571960926055908,-0.9129360318183899,0.11693469510357547,0.06920183381180657,0.24040388123090842,0.9611155900867722,0.02946656383574009,0.0995236486196518,0.2552204728126526,-0.0014500916004180908,-0.02996647357940674,-0.0024636387825012207
2025-09-20T02:20:16Z,0.08009118533965888,0.2620514270366865,0.48474753752567223,-0.19747622311115265,-0.35683417320251465,-0.9130566716194153,0.11720433292496432,0.06986372446465035,0.2428374060012368,0.9604228411380796,0.029491929337382317,0.07793942093849182,0.2361457794904709,-0.0042142122983932495,-0.024599194526672363,0.002641439437866211
2025-09-20T02:20:16Z,0.08010925257733573,0.26310911589785296,0.48954207965229724,-0.19799979031085968,-0.356529176235199,-0.9130624532699585,0.11754323098424037,0.0702774306839167,0.24514376835483428,0.9597650697693685,0.03043430857360363,0.04626460745930672,0.236906036734581,-0.007290482521057129,-0.017199933528900146,0.00704646110534668
2025-09-20T02:20:16Z,0.07953126323028914,0.2641474207640856,0.4944386904244528,-0.19907133281230927,-0.35617801547050476,-0.9129664897918701,0.11794159804211637,0.07041099945004088,0.2474620251395325,0.9591113820572204,0.027615083381533623,0.02494821511209011,0.233529731631279,-0.0038036108016967773,-0.019308120012283325,0.0009154677391052246
2025-09-20T02:20:16Z,0.07883196277004403,0.26495005331778254,0.4989417648380754,-0.2001996487379074,-0.35571691393852234,-0.9128995537757874,0.11825575682211306,0.07043733699511379,0.24958182410443452,0.9585212282342503,0.01258915662765503,0.020470261573791504,0.19793228805065155,0.0026689469814300537,-0.02858942747116089,-0.007407665252685547
2025-09-20T02:20:16Z,0.07830555040713853,0.2654684281613373,0.5025426688828322,-0.20106451213359833,-0.3552364706993103,-0.9128965139389038,0.11844387577535544,0.0704604949278348,0.2512773188537559,0.9580531957316234,0.003206411376595497,0.01838509738445282,0.15154963731765747,0.0025048404932022095,-0.0324687659740448,-0.008278429508209229
2025-09-20T02:20:16Z,0.07766961790491922,0.2657283492343307,0.505409073981847,-0.2019442319869995,-0.35471659898757935,-0.9129045009613037,0.11854789520287465,0.07035719354370223,0.2526130433959547,0.9576966045692238,-0.005211515352129936,-0.002833705395460129,0.12629738450050354,-0.0022737979888916016,-0.024771064519882202,-0.00505518913269043
2025-09-20T02:20:16Z,0.07689217402817927,0.26570615987911,0.5079751398044657,-0.20291300117969513,-0.3540225028991699,-0.912959098815918,0.11854554083006742,0.0701343723109072,0.2537954834409317,0.9574005776691756,-0.016447007656097412,-0.009803025051951408,0.11856360733509064,-0.000697404146194458,-0.019493848085403442,-0.007759988307952881
2025-09-20T02:20:16Z,0.0761454699268529,0.2655350615416246,0.5102774165150631,-0.20382167398929596,-0.3532639145851135,-0.9130505919456482,0.11847778362499232,0.06989247350541963,0.25485289623738283,0.9571457575408252,-0.021618451923131943,-0.00409837206825614,0.10328750312328339,5.482137203216553e-05,-0.023486226797103882,-0.012339949607849121
2025-09-20T02:20:16Z,0.07562468402942744,0.26541144398789246,0.5122443182493548,-0.20449064671993256,-0.3526355028152466,-0.9131438732147217,0.11841629393826877,0.06974458023806143,0.2557630758432519,0.9569213121326879,-0.012080387212336063,0.005436574574559927,0.08728468418121338,-0.000367775559425354,-0.026628583669662476,-0.009830057621002197
2025-09-20T02:20:16Z,0.07522717540426185,0.26557404494065945,0.513773829011543,-0.2050102800130844,-0.35237815976142883,-0.9131267070770264,0.1184918885769639,0.06966503489074687,0.2564714836759464,0.9567281121042004,-0.0022314703091979027,0.002128171268850565,0.07270298153162003,-0.0010707229375839233,-0.025573134422302246,-0.009762704372406006
2025-09-20T02:20:16Z,0.07482938362267029,0.26573608423390616,0.5153035487944037,-0.20552952587604523,-0.3521200120449066,-0.913109540939331,0.11856742866767894,0.06958545499548628,0.2571797858749158,0.9565343712983551,0.007617446593940258,-0.001180232036858797,0.058121275156736374,-0.001774027943611145,-0.02451840043067932,-0.009695351123809814
2025-09-20T02:20:16Z,0.07460264254342598,0.2658345140564206,0.5164822328819281,-0.20585568249225616,-0.35189732909202576,-0.9131219387054443,0.11860281130702373,0.06955910810269589,0.25773012384662486,0.9563837590492547,-0.0016336934641003609,0.007191879209131002,0.05174476280808449,-0.0009677708148956299,-0.02384394407272339,-0.010718941688537598
2025-09-20T02:20:16Z,0.07437575490031534,0.265932860964225,0.5176610770438833,-0.20618164539337158,-0.35167446732521057,-0.9131342768669128,0.11863822990125152,0.06953274436641699,0.25828040429603444,0.956232913769064,-0.01088483165949583,0.01556399092078209,0.0453682504594326,-0.00016169250011444092,-0.023169666528701782,-0.01174253225326538
2025-09-20T02:20:16Z,0.07455001865537571,0.26579621965707123,0.518521072601566,-0.20610344409942627,-0.3513251543045044,-0.9132863879203796,0.11852028316913218,0.06965003774045227,0.25870177175218423,0.9561250963775211,-0.013555660843849182,0.02130335196852684,0.033209532499313354,-0.0019629448652267456,-0.024121224880218506,-0.008935809135437012
2025-09-20T02:20:16Z,0.07476059714342108,0.2656457961036358,0.5192274828638528,-0.2059764415025711,-0.3510040044784546,-0.9134384989738464,0.11839630237173945,0.06977378805243277,0.25905179658337235,0.9560366820339418,-0.006189162842929363,0.023652242496609688,0.02876606583595276,-0.0036261528730392456,-0.024757415056228638,-0.007080435752868652
2025-09-20T02:20:16Z,0.07509812777610164,0.2658065102987348,0.5197593647979634,-0.20572438836097717,-0.35100749135017395,-0.9134939908981323,0.11841100005936854,0.06998666896173568,0.25932616262868474,0.9559449342468592,0.011631644330918789,0.021997541189193726,0.023457249626517296,-0.003295525908470154,-0.02612549066543579,-0.006601214408874512
2025-09-20T02:20:16Z,0.07540232213745593,0.26627163904447404,0.5202223011258053,-0.20550401508808136,-0.3513016998767853,-0.9134304523468018,0.11857821671349414,0.0702175819384044,0.2595659020744474,0.9558421928170407,0.02622207999229431,0.022648384794592857,0.01892879791557789,-0.002719208598136902,-0.027456969022750854,-0.008796930313110352
2025-09-20T02:20:16Z,0.07583026911851427,0.26694964651440545,0.5204629315053839,-0.20515461266040802,-0.3518451154232025,-0.9132998585700989,0.11883909271065443,0.07052111049851197,0.2597069989368359,0.955749077570631,0.031490258872509,0.02632015384733677,0.010650359094142914,-0.001962125301361084,-0.02536800503730774,-0.010125458240509033
2025-09-20T02:20:16Z,0.07636609081033084,0.2676937698434857,0.5206121588002307,-0.20469973981380463,-0.3524717092514038,-0.9131602644920349,0.11912077766642275,0.07087903392481949,0.2598109899432591,0.9556592575287886,0.035950738936662674,0.027589207515120506,0.009218456223607063,-0.0014269202947616577,-0.023299068212509155,-0.010791420936584473
2025-09-20T02:20:16Z,0.07699180404147389,0.2685131705658751,0.5206576687798414,-0.20415499806404114,-0.35319286584854126,-0.9130035638809204,0.11943046279990506,0.0712831175726763,0.2598710024733271,0.9555742465397102,0.04215722158551216,0.029712172225117683,0.0034120320342481136,-0.0017546415328979492,-0.024702221155166626,-0.010446369647979736
2025-09-20T02:20:16Z,0.07758532705260153,0.26944494565651844,0.5205838569446395,-0.20363140106201172,-0.35404571890830994,-0.9127901792526245,0.11980239950729893,0.07167868209539605,0.2598724157901261,0.9554976644629577,0.045020267367362976,0.031295306980609894,-0.0030067977495491505,-0.0022625625133514404,-0.022089332342147827,-0.007432818412780762
2025-09-20T02:20:16Z,0.07807129818093779,0.27043650869749525,0.5205444955005855,-0.20321138203144073,-0.35494264960289,-0.9125353693962097,0.12021570187325742,0.07203231101042042,0.25988408832556875,0.9554159694171027,0.0523519329726696,0.020409420132637024,0.007718053180724382,-0.0027494430541992188,-0.015230417251586914,-0.005143404006958008
2025-09-20T02:20:16Z,0.0784591539849872,0.2715665941773683,0.5206954956235418,-0.2029035985469818,-0.35591280460357666,-0.9122259616851807,0.12070119641301764,0.07236777460089776,0.259981106380496,0.9553030345873403,0.05468067526817322,0.020764049142599106,0.012227475643157959,0.00030875205993652344,-0.015486478805541992,-0.00997912883758545
2025-09-20T02:20:16Z,0.07891791816165945,0.2727089330725275,0.5207882238097548,-0.20252619683742523,-0.3569088280200958,-0.9119206070899963,0.12118536345444565,0.07273511784899409,0.26005470571081857,0.9551938441171531,0.05652015656232834,0.028149614110589027,0.006117498967796564,0.00167122483253479,-0.018524616956710815,-0.01233142614364624
2025-09-20T02:20:16Z,0.07955389933060497,0.2740306904150636,0.5207911669268696,-0.2019840031862259,-0.3580882251262665,-0.9115784764289856,0.1217356224402126,0.07320401057275346,0.26009663335142025,0.9550765975855152,0.06726875901222229,0.03012401983141899,0.005984792020171881,0.0004848390817642212,-0.019056320190429688,-0.008181452751159668
2025-09-20T02:20:16Z,0.08006883892424406,0.27560374057792236,0.5207967851028504,-0.20156025886535645,-0.3594904839992523,-0.9111202359199524,0.12242179692819462,0.07364651912165951,0.26013306440934614,0.954944948687475,0.08770063519477844,0.018470998853445053,0.0016922778449952602,-0.0012477487325668335,-0.020789533853530884,-0.006224930286407471
2025-09-20T02:20:16Z,0.08047262184943864,0.2774572341718339,0.5206281131237428,-0.20122969150543213,-0.36118772625923157,-0.9105218648910522,0.1232630872058547,0.07406009366987841,0.26008007609232736,0.9548191376736999,0.09485863149166107,0.01865714229643345,-8.262414485216141e-05,0.00022645294666290283,-0.01862308382987976,-0.010324597358703613
2025-09-20T02:20:16Z,0.08093285155504706,0.27941603438990203,0.5203439826515323,-0.20084042847156525,-0.3630078434944153,-0.9098837375640869,0.12415172102010456,0.0745063060315445,0.2599757843456507,0.9546976292536952,0.0952235609292984,0.013164831325411797,-0.006846143864095211,0.0007877498865127563,-0.017881393432617188,-0.008931457996368408
2025-09-20T02:20:16Z,0.08119858569732277,0.2812374462591766,0.5200231685332618,-0.2006213217973709,-0.3647138774394989,-0.9092496037483215,0.12500122098122396,0.07483990075273118,0.25984182445238535,0.9545971493295218,0.08300485461950302,0.004417320713400841,-0.006741158664226532,0.000401422381401062,-0.014884263277053833,-0.005715668201446533
2025-09-20T02:20:16Z,0.0813857727553493,0.28274120648141626,0.5197265980165044,-0.200467050075531,-0.36612972617149353,-0.9087144732475281,0.12570794519013967,0.0750976773127909,0.2597141103488358,0.9545188456316887,0.06821972131729126,0.0028702274430543184,-0.010774992406368256,0.0006277710199356079,-0.01620858907699585,-0.0070860981941223145
2025-09-20T02:20:16Z,0.0815533901100718,0.28399538494400717,0.5192677462677101,-0.2003077268600464,-0.36736544966697693,-0.9082507491111755,0.12630384915986903,0.07530459188902713,0.2595073916509523,0.9544801056980182,0.05482075363397598,0.0047664400190114975,-0.01981193572282791,-0.0005445778369903564,-0.020390868186950684,-0.0083388090133667
2025-09-20T02:20:17Z,0.08172599119597668,0.28497564825961474,0.5186552975386943,-0.20012100040912628,-0.3683975040912628,-0.907873809337616,0.1267738171994787,0.07546984219336401,0.2592273238346617,0.9544809672950515,0.04400748759508133,-0.0016523906961083412,-0.03019839897751808,-0.0004204660654067993,-0.022284656763076782,-0.007187843322753906
2025-09-20T02:20:17Z,0.0819652582444951,0.28573761042037144,0.5177293633580615,-0.19983676075935364,-0.3693173825740814,-0.9075626134872437,0.12714259190688043,0.07561965320111394,0.25880165547910916,0.95453555205544,0.037047065794467926,-0.0034459191374480724,-0.04336104914546013,0.002882257103919983,-0.02210792899131775,-0.011675655841827393
2025-09-20T02:20:17Z,0.08222584915539795,0.28635312797589363,0.5167301593958028,-0.19952154159545898,-0.37012603878974915,-0.9073024988174438,0.1274414172934608,0.07575653686502787,0.25834221926698137,0.9546092627785312,0.02699868194758892,-9.650737047195435e-05,-0.04278883337974548,0.004356831312179565,-0.019244372844696045,-0.011256992816925049
2025-09-20T02:20:17Z,0.08242465261961494,0.28672438289217456,0.5157488734449207,-0.19925661385059357,-0.37071290612220764,-0.9071211218833923,0.1276307168158483,0.07583466215441667,0.25788705454466815,0.9547008250448027,0.01430547796189785,-0.005336141679435968,-0.04380630701780319,0.0038107633590698242,-0.016548752784729004,-0.007596731185913086
2025-09-20T02:20:17Z,0.08246022498772873,0.2868484248889043,0.5148888192496903,-0.1991439014673233,-0.37104836106300354,-0.907008707523346,0.127718141749034,0.07581201743387161,0.2574789495059118,0.9548010638884228,0.005797497928142548,-0.013157129287719727,-0.030977100133895874,0.0031737834215164185,-0.01267734169960022,-0.003449380397796631
2025-09-20T02:20:17Z,0.08218719167471825,0.2870051177908789,0.5142838860703461,-0.1993369311094284,-0.3713459074497223,-0.9068445563316345,0.1278512224591176,0.07566228530193168,0.25717293718283896,0.954877593175176,0.012426934204995632,-0.02531023696064949,-0.02467218041419983,0.0016104429960250854,-0.01645106077194214,-0.0002910494804382324
2025-09-20T02:20:17Z,0.0817578673850704,0.2873702362354935,0.5138334124684624,-0.19969303905963898,-0.3717878758907318,-0.9065850377082825,0.12809828878409027,0.07547333020036087,0.2569309014828771,0.9549246325003374,0.025342021137475967,-0.02770284377038479,-0.01636107824742794,0.001347467303276062,-0.019126206636428833,-0.0037925243377685547
2025-09-20T02:20:17Z,0.08131586619211825,0.28792776571064854,0.5135378074891597,-0.2000814825296402,-0.37235990166664124,-0.90626460313797,0.12843321912780584,0.07531177448893477,0.25676213576594736,0.9549378435026689,0.02956731617450714,-0.024096015840768814,-0.0042557138949632645,0.0009339004755020142,-0.017918944358825684,-0.008133292198181152
2025-09-20T02:20:17Z,0.08094044471970196,0.28845232289814143,0.5134709000576626,-0.20043091475963593,-0.3728426694869995,-0.905988872051239,0.12873516213643946,0.07519260441997476,0.25670667907253314,0.9549214818171159,0.022175133228302002,-0.014308314770460129,0.003845738247036934,0.0018947124481201172,-0.01994866132736206,-0.01605004072189331
