timestamp,attitude_roll,attitude_pitch,attitude_yaw,gravity_x,gravity_y,gravity_z,quaternion_x,quaternion_y,quaternion_z,quaternion_w,rotation_rate_x,rotation_rate_y,rotation_rate_z,user_acceleration_x,user_acceleration_y,user_acceleration_z
2025-09-20T02:20:05Z,0.09149623522835335,0.2200935874246633,0.52280459655815,-0.18963350355625153,-0.30890601873397827,-0.9319958090782166,0.09423558286763466,0.07226427412187927,0.2614553442088873,0.9578822936690427,0.11474132537841797,0.04287490248680115,0.31278544664382935,-0.005324006080627441,-0.03802958130836487,-0.0004947781562805176
2025-09-20T02:20:05Z,0.09093638151239214,0.2228907577170589,0.5287271523577062,-0.19080187380313873,-0.3098680078983307,-0.9314378499984741,0.09543733025287993,0.07263114183528285,0.2642850610686414,0.956958552929789,0.10575182735919952,0.037408288568258286,0.28332754969596863,-0.0022874176502227783,-0.03599640727043152,-0.004651665687561035
2025-09-20T02:20:05Z,0.09048780123115699,0.2255135041168437,0.5340414565985518,-0.19179454445838928,-0.31083065271377563,-0.9309130907058716,0.09656126532901574,0.07300707990152393,0.26682370199635386,0.9561124442085991,0.10109880566596985,0.03998430073261261,0.2564481198787689,0.0019948333501815796,-0.03501850366592407,-0.00841069221496582
2025-09-20T02:20:05Z,0.09023056679793166,0.22806038218041416,0.5389052249246656,-0.1925572007894516,-0.31184205412864685,-0.9304172396659851,0.09763814536191391,0.0734490086101408,0.2691523480695376,0.9553162252171861,0.09962346404790878,0.045438192784786224,0.23767340183258057,0.002745985984802246,-0.030343979597091675,-0.011946916580200195
2025-09-20T02:20:05Z,0.09018351060782208,0.230489411161445,0.5435396328083684,-0.19309338927268982,-0.31280526518821716,-0.9299827218055725,0.09863683003139724,0.07397011399604499,0.2713781260163128,0.9545434373731561,0.09157677739858627,0.05314814671874046,0.23730745911598206,0.0023619383573532104,-0.02184203267097473,-0.013576686382293701
2025-09-20T02:20:05Z,0.09028000397045138,0.23270215201586997,0.5482524601125321,-0.19349101185798645,-0.3135484457015991,-0.9296497106552124,0.09950746116098863,0.07453999688683806,0.27364458483299997,0.9537613934926121,0.08023040741682053,0.06070621684193611,0.23809470236301422,0.0015456229448318481,-0.017064601182937622,-0.011563420295715332
2025-09-20T02:20:05Z,0.09036966096358291,0.23471726335395046,0.5530246062723816,-0.1938883662223816,-0.3140939176082611,-0.9293827414512634,0.1002800907331423,0.0750877524195962,0.275935454800177,0.9529771220850372,0.07134482264518738,0.05563335120677948,0.23953372240066528,-0.0004864931106567383,-0.016275376081466675,-0.005855977535247803
2025-09-20T02:20:06Z,0.09023861572576788,0.23653953323488136,0.5578269719845839,-0.1944815218448639,-0.31445401906967163,-0.9291369915008545,0.10098803161600425,0.07551014358644309,0.2782261597243731,0.9522026002236758,0.0637633204460144,0.04359816014766693,0.23964285850524902,-0.0028828084468841553,-0.015795201063156128,-0.002225637435913086
2025-09-20T02:20:06Z,0.08992479255346456,0.23816458551757075,0.5625755562908468,-0.19522766768932343,-0.3146476745605469,-0.9289149641990662,0.10162799612178054,0.07581998727921987,0.28047853031833486,0.9514487613655201,0.05240685120224953,0.037495486438274384,0.23467040061950684,-0.0038907229900360107,-0.017423659563064575,-0.0036138296127319336
2025-09-20T02:20:06Z,0.08950544302180626,0.2395859433639071,0.5671740351427715,-0.19604691863059998,-0.3146952688694,-0.9287262558937073,0.10219047728402474,0.07604768716853562,0.282650748007208,0.9507272642595026,0.04822354018688202,0.026804421097040176,0.21846051514148712,-0.004511415958404541,-0.022533029317855835,-0.003922700881958008
2025-09-20T02:20:06Z,0.08895582154482201,0.24088659903607965,0.5713889077710717,-0.19694577157497406,-0.3147355318069458,-0.9285224080085754,0.10272804269506085,0.0761802231097437,0.2846312715033418,0.950067613220651,0.04466056823730469,0.02118735760450363,0.19349044561386108,-0.0032732486724853516,-0.027583599090576172,-0.006558537483215332
2025-09-20T02:20:06Z,0.08856281163211978,0.24187636371529633,0.57426482435803,-0.19757559895515442,-0.31485500931739807,-0.9283481240272522,0.10314604695885543,0.07627772054897657,0.28598097241278864,0.9496090380007813,0.03742315247654915,0.01608140952885151,0.16436505317687988,-0.0037802308797836304,-0.02760183811187744,-0.0059340596199035645
2025-09-20T02:20:06Z,0.08816677814011653,0.24286504651817262,0.5771417998675806,-0.198205828666687,-0.31497257947921753,-0.928173840045929,0.10356383278822819,0.07637504983203525,0.2873300161658697,0.9491483735907003,0.03018573671579361,0.010975462384521961,0.13523967564105988,-0.0042867958545684814,-0.027621924877166748,-0.005309402942657471
2025-09-20T02:20:06Z,0.08776771610305265,0.24385263418600334,0.5800199816259674,-0.19883646070957184,-0.3150882124900818,-0.92799973487854,0.10398139153861734,0.07647221315400117,0.2886784635380242,0.9486856160616741,0.02294832095503807,0.005869515240192413,0.10611429065465927,-0.004792988300323486,-0.02764400839805603,-0.004684746265411377
2025-09-20T02:20:06Z,0.08736366914241532,0.24461240616995936,0.5820632886730075,-0.1993962973356247,-0.3152231276035309,-0.9278337359428406,0.10432315770341266,0.07649295850038061,0.2896290457397912,0.9483566570474462,0.02245180308818817,-0.003778379410505295,0.07772403955459595,-0.0041413456201553345,-0.030703842639923096,-0.0029471516609191895
2025-09-20T02:20:06Z,0.08680472929770544,0.24532650119981783,0.5834594041355872,-0.20004582405090332,-0.3154919147491455,-0.9276025295257568,0.1046904838408188,0.07640079232075123,0.2902640234862288,0.9481294422311141,0.025651734322309494,-0.016554094851017,0.05406792089343071,-0.0043566226959228516,-0.03071841597557068,-0.0019252896308898926
2025-09-20T02:20:06Z,0.08613975227748026,0.2460317384091052,0.5844155453903654,-0.20075778663158417,-0.3158718943595886,-0.9273194074630737,0.10508595238546321,0.07623456863149106,0.290684442369298,0.947970269984191,0.02689264714717865,-0.024834658950567245,0.039032284170389175,-0.003398522734642029,-0.028295934200286865,-0.0036628246307373047
2025-09-20T02:20:06Z,0.0854291314384179,0.24665025794257192,0.5851197680131083,-0.20148926973342896,-0.3162415325641632,-0.9270347356796265,0.10545657082125313,0.07602164997443142,0.2909824588799025,0.9478548172611139,0.02249208092689514,-0.026847053319215775,0.03379745036363602,-0.0020263642072677612,-0.02315792441368103,-0.007396519184112549
2025-09-20T02:20:06Z,0.08480018782350748,0.2472167314723025,0.5858257488257651,-0.2021433562040329,-0.3165633976459503,-0.9267824292182922,0.1057906269597766,0.07584049291520749,0.2912851923394981,0.9477391412194895,0.022540180012583733,-0.022723371163010597,0.039898909628391266,-0.0013430416584014893,-0.02021956443786621,-0.008902907371520996
2025-09-20T02:20:06Z,0.08422506284101056,0.24779652818666661,0.5866514191840977,-0.20275700092315674,-0.3168647587299347,-0.9265453815460205,0.10611876227019695,0.07569331698743342,0.2916472516653124,0.94760289850128,0.02549678087234497,-0.014162614941596985,0.044304050505161285,-0.0003912001848220825,-0.019872426986694336,-0.010184824466705322
2025-09-20T02:20:06Z,0.08387562323700842,0.2484616682073649,0.5875083828363679,-0.2031659036874771,-0.3172348439693451,-0.9263291358947754,0.1064534442357711,0.075667054850359,0.29203605319700876,0.9474477019533802,0.027592042461037636,-0.0015831412747502327,0.04400435462594032,-9.483098983764648e-05,-0.022121161222457886,-0.011636018753051758
2025-09-20T02:20:06Z,0.08370047886598125,0.24913865504547317,0.5883902837452445,-0.20341533422470093,-0.3176087737083435,-0.9261462688446045,0.10676735336091332,0.07572665536405879,0.2924457602849675,0.9472812371221903,0.02737174928188324,0.0037890844978392124,0.04354790225625038,-0.0011221468448638916,-0.022200852632522583,-0.010024845600128174
2025-09-20T02:20:06Z,0.0836065703137807,0.24976872972734468,0.5892846678298274,-0.20358896255493164,-0.31793662905693054,-0.9259955883026123,0.10704656989225572,0.07581906308848593,0.2928654908318862,0.9471125415447751,0.02257499098777771,0.005877045914530754,0.04275623336434364,-0.0017222166061401367,-0.02264273166656494,-0.008996009826660156
2025-09-20T02:20:06Z,0.08353583925974196,0.25026458642999355,0.5900438782129664,-0.20372682809829712,-0.31817957758903503,-0.9258818030357361,0.10726368816701766,0.07589643302706713,0.29322206735558665,0.9469714175767745,0.014669693075120449,0.006440584547817707,0.033765919506549835,-0.0023718029260635376,-0.024846166372299194,-0.008304893970489502
2025-09-20T02:20:06Z,0.08340277860208745,0.25056567208224695,0.5906451936942565,-0.20390479266643524,-0.31828898191452026,-0.9258050322532654,0.10740339264538196,0.07590836585855348,0.2935001207427912,0.9468684938633102,0.010136237367987633,0.0014593391679227352,0.02360539883375168,-0.0026874542236328125,-0.02667093276977539,-0.006342291831970215
2025-09-20T02:20:06Z,0.08333778019623997,0.2508239693532196,0.5909593497344918,-0.20399624109268188,-0.3184375762939453,-0.9257338047027588,0.10752368092593292,0.07593109761175919,0.29364576028910205,0.9468078928858408,0.007797260768711567,-0.001743617933243513,0.012426401488482952,-0.0031861811876296997,-0.02691999077796936,-0.006072819232940674
2025-09-20T02:20:06Z,0.08323896516339377,0.25098455783511325,0.5911477929684157,-0.20410659909248352,-0.3185318410396576,-0.9256770610809326,0.1076073007861872,0.07591723038329365,0.2937298941858917,0.9467734434480666,0.003071161452680826,-0.003126137889921665,0.004122687503695488,-0.004258334636688232,-0.02522742748260498,-0.0062004923820495605
2025-09-20T02:20:06Z,0.0831165567095858,0.2509896811759331,0.5911431367520242,-0.20421969890594482,-0.31853774189949036,-0.9256500601768494,0.10762788645965078,0.07585975727185386,0.2937211058935263,0.9467784578286473,-0.0036006257869303226,-0.004388238303363323,-0.004174581728875637,-0.0046949684619903564,-0.0245380699634552,-0.0062525272369384766
2025-09-20T02:20:06Z,0.08305721294631367,0.2508481877836962,0.5909757541270274,-0.20425790548324585,-0.3184550702571869,-0.9256700873374939,0.10757574985662989,0.07580258493808623,0.29363846119582393,0.9468145995788321,-0.008381346240639687,-0.005351650528609753,-0.009053109213709831,-0.0037876516580581665,-0.023105710744857788,-0.007210373878479004
2025-09-20T02:20:06Z,0.083013297988556,0.25067105192489714,0.5907169542578466,-0.2042737603187561,-0.3183649480342865,-0.9256975650787354,0.10750787358492377,0.07574275680643432,0.2935133110722814,0.9468659019017263,-0.007430910598486662,-0.001777923433110118,-0.01438240334391594,-0.0032911598682403564,-0.023326396942138672,-0.008434653282165527
2025-09-20T02:20:06Z,0.0831105650889378,0.250476671306304,0.5903450372576959,-0.20414966344833374,-0.31828993558883667,-0.925750732421875,0.10741536426642322,0.07574126880467627,0.29334215036092276,0.9469295754131977,-0.00925341434776783,1.665193121880293e-05,-0.017211932688951492,-0.004143953323364258,-0.02202346920967102,-0.008799254894256592
2025-09-20T02:20:06Z,0.08321261121066251,0.25025447272204354,0.5900152530643479,-0.20402364432811737,-0.31817826628685,-0.9258168935775757,0.10730734681319792,0.07574040151849085,0.29319112381740103,0.9469886833441591,-0.015384538099169731,0.001962653361260891,-0.012210416607558727,-0.0032179951667785645,-0.01963716745376587,-0.008089780807495117
2025-09-20T02:20:06Z,0.08327420927831299,0.24994772674972232,0.5897921135990905,-0.20394106209278107,-0.3179609775543213,-0.9259097576141357,0.10716106418951514,0.07571418062416144,0.29308828945592513,0.9470390802702027,-0.013421486131846905,0.0014667297946289182,-0.013187612406909466,-0.002866029739379883,-0.022858768701553345,-0.00788182020187378
2025-09-20T02:20:06Z,0.0834142571956717,0.24970111680410287,0.5894341346218603,-0.20377694070339203,-0.3178348243236542,-0.9259892106056213,0.10703694782729366,0.07572642100373808,0.2929258499633861,0.9471024174754038,-0.009107149206101894,0.004479930270463228,-0.019382383674383163,-0.0022203922271728516,-0.025462180376052856,-0.008099079132080078
2025-09-20T02:20:06Z,0.0835869327969365,0.24960568490529955,0.5890811196070969,-0.20358693599700928,-0.3178442418575287,-0.926027774810791,0.10697969802897941,0.07577580818985949,0.2927677479783998,0.9471538130183385,-0.00847849901765585,0.004911685362458229,-0.014551609754562378,-0.0034036636352539062,-0.022504359483718872,-0.008235514163970947
2025-09-20T02:20:06Z,0.08375958256680748,0.24951021270339338,0.5887281666146431,-0.20339691638946533,-0.3178535997867584,-0.9260662794113159,0.10692244806423726,0.07582519905653105,0.2926096455845794,0.9472052081918225,-0.007849848829209805,0.005343440920114517,-0.009720835834741592,-0.004586964845657349,-0.01954662799835205,-0.008372008800506592
2025-09-20T02:20:06Z,0.08407919371561987,0.24931550673700653,0.5885520219257292,-0.20308195054531097,-0.3177250325679779,-0.9261795282363892,0.10678986682639482,0.07593964817911779,0.29254293063088627,0.9472316001344063,-0.009325960651040077,0.018167052417993546,-0.003752050455659628,-0.0015174895524978638,-0.020406514406204224,-0.010859191417694092
2025-09-20T02:20:06Z,0.08464667229669663,0.24921270497098993,0.5883757382944055,-0.20253977179527283,-0.317679762840271,-0.9263137578964233,0.10666472762507476,0.07618448956330617,0.2924895152598563,0.9472425345258155,-0.003300973679870367,0.029698766767978668,-0.011474471539258957,7.24494457244873e-05,-0.027112126350402832,-0.012276887893676758
2025-09-20T02:20:06Z,0.08539735426543613,0.2492368063675725,0.5879707920832049,-0.20181331038475037,-0.3178115487098694,-0.9264271259307861,0.10658188180296005,0.07652184232652327,0.2923377841079189,0.9472715457106784,0.003195563331246376,0.03154829517006874,-0.021191108971834183,0.0011658966541290283,-0.02616599202156067,-0.010443389415740967
2025-09-20T02:20:06Z,0.086156993281942,0.24925727690231111,0.5874910277203934,-0.20107242465019226,-0.317960262298584,-0.9265371561050415,0.10649901100676663,0.07685898298000889,0.2921510815476284,0.9473110854777921,0.002326743444427848,0.02821715734899044,-0.020013198256492615,0.0009265094995498657,-0.020655810832977295,-0.008962035179138184
2025-09-20T02:20:06Z,0.08679350711692414,0.24925483725605388,0.5870846208593362,-0.20045068860054016,-0.31806835532188416,-0.9266347885131836,0.10642054378686672,0.077138499336782,0.2919924548869863,0.9473460971190795,-0.002183334669098258,0.02056572213768959,-0.017428113147616386,0.0018894076347351074,-0.01825651526451111,-0.007608950138092041
2025-09-20T02:20:06Z,0.08725408775179973,0.2491361062727011,0.5867389391320862,-0.19999343156814575,-0.31805458664894104,-0.9267383217811584,0.10631024178706998,0.07732157507993358,0.29185289749363647,0.9473865115774148,-0.007662840187549591,0.014537453651428223,-0.014087539166212082,0.0019025802612304688,-0.018159925937652588,-0.006324172019958496
2025-09-20T02:20:06Z,0.08756102392806091,0.24899576303770982,0.5864052954840807,-0.19967886805534363,-0.31801801919937134,-0.9268186688423157,0.10621166659002505,0.07742949454949231,0.2917107519431052,0.9474325716974575,-0.008022146299481392,0.007901230826973915,-0.016711771488189697,0.0018061250448226929,-0.020314902067184448,-0.004566609859466553
2025-09-20T02:20:06Z,0.08764896374022516,0.24884210130051831,0.5860542188932817,-0.19956547021865845,-0.31797412037849426,-0.9268581867218018,0.10613939733144541,0.07743090423654551,0.2915486512730146,0.9474904930882195,-0.0034545441158115864,-0.002262596972286701,-0.01641126163303852,0.0006906092166900635,-0.019732177257537842,-0.003747105598449707
2025-09-20T02:20:06Z,0.08764104986683863,0.24879447925500386,0.5857420759739598,-0.1995469033718109,-0.3180156648159027,-0.9268479347229004,0.10612999738504485,0.07740389818663775,0.2914002131960447,0.9475394131127945,-0.002806666074320674,-0.005452359095215797,-0.012203644961118698,0.0006229132413864136,-0.018949389457702637,-0.006404101848602295
2025-09-20T02:20:06Z,0.08762712706256899,0.2487140133007455,0.5855231932993151,-0.19954031705856323,-0.3180021643638611,-0.9268539547920227,0.10610224408513232,0.07737438142786832,0.2912955304404527,0.9475771474489758,-0.005116050131618977,-0.001360754482448101,-0.007722622249275446,0.0019129812717437744,-0.01869407296180725,-0.009690642356872559
2025-09-20T02:20:06Z,0.08761070264125778,0.2485918668292991,0.585316584126011,-0.19953584671020508,-0.3179475665092468,-0.9268736839294434,0.10605456223974065,0.07733848749904357,0.29119640747198267,0.9476158923336958,-0.007513504475355148,-0.00103948509786278,-0.010027392767369747,0.0019931048154830933,-0.020699918270111084,-0.01068425178527832
2025-09-20T02:20:06Z,0.0876676335786424,0.2484247499392025,0.5850767510541751,-0.19945943355560303,-0.3178611993789673,-0.9269197583198547,0.10597610926818014,0.07732930320917195,0.29108531712525204,0.9476594558458956,-0.007465869653970003,0.002474603708833456,-0.012339160777628422,0.0015221089124679565,-0.02179756760597229,-0.011673331260681152
2025-09-20T02:20:06Z,0.08773182064653533,0.24828993480009223,0.5847720021500257,-0.1993720978498459,-0.3178217113018036,-0.926952064037323,0.10591446033904368,0.0773246593156017,0.2909439126390992,0.9477101446362125,-0.005744889844208956,-0.002414900343865156,-0.013701127842068672,-0.0008034259080886841,-0.0220947265625,-0.0091475248336792
2025-09-20T02:20:06Z,0.08771355690485522,0.24822131331919722,0.5844540504407827,-0.19936195015907288,-0.31784579157829285,-0.9269459843635559,0.1058967815632147,0.07728954501940222,0.29079207163109694,0.9477615863222529,-0.0005929828621447086,-0.010879913344979286,-0.015628863126039505,-0.002451494336128235,-0.022250384092330933,-0.00573199987411499
2025-09-20T02:20:06Z,0.08756773166011896,0.24825703213704978,0.584116679153233,-0.1994713991880417,-0.3179696798324585,-0.9268799424171448,0.10594798865090432,0.07720757236809939,0.2906245669448067,0.9478139655434766,0.005446167662739754,-0.015467481687664986,-0.01781822368502617,-0.001604914665222168,-0.024569392204284668,-0.0062441229820251465
2025-09-20T02:20:06Z,0.08741631510212187,0.24840781243766938,0.5836792431579059,-0.19958122074604034,-0.31822487711906433,-0.9267687201499939,0.10605855470427099,0.07713374744391412,0.2904096785378488,0.9478734788008238,0.006946791894733906,-0.012817258015275002,-0.01793081685900688,-0.0009928494691848755,-0.022795915603637695,-0.008098065853118896
2025-09-20T02:20:06Z,0.08719822809097202,0.24860665680831462,0.58326810701675,-0.19975613057613373,-0.31851643323898315,-0.9266308546066284,0.1062006113849374,0.07703640676868831,0.29020384102544716,0.9479284869352295,0.010111433453857899,-0.01660960167646408,-0.01635623537003994,-0.0010801702737808228,-0.021717816591262817,-0.007548391819000244
2025-09-20T02:20:06Z,0.08696538121302275,0.248828035841025,0.5829176362021771,-0.19995011389255524,-0.31881192326545715,-0.926487386226654,0.10635315188686079,0.07693839079965678,0.2900259959270854,0.9479737486271042,0.010370638221502304,-0.012795780785381794,-0.014160764403641224,-0.000554203987121582,-0.02001321315765381,-0.008494794368743896
2025-09-20T02:20:06Z,0.08681370376962846,0.24909187009391046,0.5826511841656361,-0.20007669925689697,-0.3191230595111847,-0.9263529181480408,0.10651085269130214,0.07688920338707923,0.289892369065868,0.9480009184898631,0.010977507568895817,-0.01012780424207449,-0.005941383540630341,-0.0013351589441299438,-0.017064541578292847,-0.008665502071380615
2025-09-20T02:20:06Z,0.08666024249057146,0.24935924277028998,0.5826093730391108,-0.2002228945493698,-0.31937646865844727,-0.9262340068817139,0.10666185145597036,0.07685160937642918,0.28986511675743576,0.9479953078783232,0.012973686680197716,-0.005532715003937483,0.005892371758818626,-0.00047639012336730957,-0.016135424375534058,-0.008376896381378174
2025-09-20T02:20:06Z,0.0865175560261987,0.24972052900950129,0.5827765187430186,-0.20037835836410522,-0.3196582794189453,-0.9261031746864319,0.10684791531482052,0.07684340384451659,0.28993770381552814,0.9479528260203077,0.017430376261472702,-0.002646026434376836,0.011506684124469757,-5.488097667694092e-05,-0.01929512619972229,-0.008297562599182129
2025-09-20T02:20:07Z,0.08644433004553413,0.25017216780477874,0.5830062827167756,-0.2004769891500473,-0.3200049102306366,-0.9259620904922485,0.10706445571848795,0.07688412823844018,0.29004386260395953,0.9478927002201357,0.02294931560754776,-0.0012448793277144432,0.013898979872465134,-0.00015228986740112305,-0.020493686199188232,-0.007440626621246338
2025-09-20T02:20:07Z,0.08639736015376429,0.2507463417868287,0.5833330233527215,-0.20056235790252686,-0.3204360902309418,-0.9257944822311401,0.10733170828547217,0.07695970291933399,0.29019768057614415,0.9478092671323132,0.027060389518737793,0.001200532540678978,0.02181386388838291,-0.0009199231863021851,-0.018606960773468018,-0.007760465145111084
2025-09-20T02:20:07Z,0.08617407244600986,0.2513824247014539,0.5839441619244219,-0.200835183262825,-0.3208461105823517,-0.9255933165550232,0.10764301600651913,0.07697578913672151,0.2904768749939003,0.9476871101280981,0.032957080751657486,-0.007306133396923542,0.039595089852809906,-0.002315133810043335,-0.016135990619659424,-0.005463242530822754
2025-09-20T02:20:07Z,0.08579688763301316,0.2522440850250597,0.5847979795997011,-0.20127569139003754,-0.3213943541049957,-0.9253073930740356,0.10807457156637178,0.07696390145600654,0.29086309897596363,0.9475204740168044,0.03928948566317558,-0.011233017779886723,0.04928871989250183,-0.0007472634315490723,-0.017913758754730225,-0.00856781005859375
2025-09-20T02:20:07Z,0.0853058773267011,0.25316743001693487,0.5858356612744806,-0.20183731615543365,-0.321948379278183,-0.9249923825263977,0.10854495085007289,0.07691712336691697,0.29133004753339053,0.9473270536047448,0.044177234172821045,-0.007912497967481613,0.055570684373378754,0.000810086727142334,-0.019498378038406372,-0.011257350444793701
2025-09-20T02:20:07Z,0.08483652658121778,0.25422775230712347,0.586975954381663,-0.2023901790380478,-0.3225982189178467,-0.9246451258659363,0.10907335445951262,0.07690599854364231,0.29184660406649593,0.9471082546003775,0.04786551371216774,-0.012724334374070168,0.06568589806556702,0.00025412440299987793,-0.016592323780059814,-0.008881628513336182
2025-09-20T02:20:07Z,0.08418431444106692,0.25535291999418375,0.588406404515236,-0.2031358778476715,-0.3232277035713196,-0.9242616891860962,0.10964815987264204,0.07683399577332399,0.2924901329151764,0.9468491291233914,0.05077306553721428,-0.013192587532103062,0.0735742524266243,0.0016835331916809082,-0.016971051692962646,-0.009818077087402344
2025-09-20T02:20:07Z,0.08384547334032011,0.25633855720881754,0.5895814853157167,-0.20356741547584534,-0.3237999677658081,-0.9239664077758789,0.11012070826666506,0.0768773900264167,0.29302918209365986,0.9466240309793349,0.04411213472485542,-0.007543107029050589,0.06140456721186638,0.0017065554857254028,-0.019185930490493774,-0.009462237358093262
2025-09-20T02:20:07Z,0.08350534378896098,0.2573238427364087,0.590757216746441,-0.20399965345859528,-0.32437148690223694,-0.9236705303192139,0.11059321092369785,0.07692074385593187,0.293568065271813,0.946398396356105,0.03745120391249657,-0.0018936265259981155,0.04923488199710846,0.0017302483320236206,-0.02140161395072937,-0.009106874465942383
2025-09-20T02:20:07Z,0.08316394876707307,0.25830870591310817,0.5919335745690032,-0.20443257689476013,-0.3249422013759613,-0.9233741760253906,0.11106562923524604,0.07696405120988396,0.2941067594413561,0.9461722829421578,0.03079027123749256,0.003755854442715645,0.03706519305706024,0.0017546266317367554,-0.023618072271347046,-0.008752167224884033
2025-09-20T02:20:07Z,0.08303399238364623,0.2590545633699155,0.5926895025375396,-0.20463097095489502,-0.3254108428955078,-0.9231651425361633,0.11140963570753118,0.07705054109641951,0.29445778241092335,0.946015631322747,0.02486431784927845,0.0022980659268796444,0.02503988891839981,-0.00012701749801635742,-0.02470812201499939,-0.006904304027557373
2025-09-20T02:20:07Z,0.08289461982951442,0.2595590189284946,0.5931286502354359,-0.20480701327323914,-0.3257472515106201,-0.9230074882507324,0.1116526317865765,0.07708082081952779,0.2946581261555838,0.9459221130351572,0.016215156763792038,-0.004006444476544857,0.013029598630964756,-0.0010690391063690186,-0.025117158889770508,-0.005391120910644531
2025-09-20T02:20:07Z,0.08272199797853823,0.25987297595525194,0.593219716571766,-0.20498178899288177,-0.3260060250759125,-0.922877311706543,0.11182353607249539,0.07704891577409648,0.29469177996697205,0.9458940318678253,0.009201006963849068,-0.01129874773323536,-0.0027635330334305763,-0.0009935349225997925,-0.02753540873527527,-0.005218803882598877
2025-09-20T02:20:07Z,0.08243893839423748,0.260049683455637,0.5930448937137534,-0.2052343338727951,-0.32621297240257263,-0.9227480292320251,0.11195581385916041,0.07693038311629759,0.2945933633093536,0.9459187391066557,0.004089445807039738,-0.0187764260917902,-0.011193672195076942,-0.0021123290061950684,-0.02517801523208618,-0.004065454006195068
2025-09-20T02:20:07Z,0.08211733373483901,0.2600868267220424,0.5926977179859245,-0.2055053561925888,-0.32634061574935913,-0.9226425886154175,0.11203413589347382,0.07676411111819026,0.29441117018483565,0.9459796969092928,-0.001028846949338913,-0.02262558974325657,-0.017114661633968353,-0.0023918449878692627,-0.023761898279190063,-0.0059244632720947266
2025-09-20T02:20:07Z,0.08181484438974287,0.25999590791752203,0.592369642833916,-0.20575669407844543,-0.3263474404811859,-0.9225841760635376,0.1120480862799174,0.07658974204122607,0.2942390089837171,0.9460456880085358,-0.007464244961738586,-0.011038591153919697,-0.014855777844786644,-0.0019678622484207153,-0.023534387350082397,-0.01061946153640747
2025-09-20T02:20:07Z,0.08186654877449308,0.25978417305002743,0.5920690399853453,-0.20568016171455383,-0.3262377977371216,-0.9226400256156921,0.11195150201250317,0.07656729045934799,0.29409958835087147,0.9461023384510272,-0.008453465066850185,0.0073996419087052345,-0.01526521798223257,-0.0007336586713790894,-0.026267826557159424,-0.012941896915435791
2025-09-20T02:20:07Z,0.08224737939297044,0.25963942202419915,0.5916765208100506,-0.20529454946517944,-0.3262134790420532,-0.9227344393730164,0.11184185993363041,0.07670494999163893,0.29393513662003423,0.9461552072736619,-0.006871752440929413,0.018444854766130447,-0.019405661150813103,-0.000820547342300415,-0.027269959449768066,-0.01206439733505249
2025-09-20T02:20:07Z,0.08276719433030838,0.25949650631707927,0.591331577890286,-0.20478439331054688,-0.3261779844760895,-0.9228603839874268,0.11171088616846502,0.07691130321375429,0.29380086631638114,0.9461957571955916,-0.008032150566577911,0.023145832121372223,-0.014845641329884529,-0.001426607370376587,-0.022708386182785034,-0.009508669376373291
2025-09-20T02:20:07Z,0.08329057653075016,0.2592751442649537,0.5911006880063678,-0.20427747070789337,-0.32604071497917175,-0.9230211973190308,0.1115378313800919,0.07711465984589777,0.2937206612572819,0.9462244815125624,-0.01224913913756609,0.02071935310959816,-0.011666996404528618,-0.002115294337272644,-0.020115405321121216,-0.00873476266860962
2025-09-20T02:20:07Z,0.08375899593048948,0.25891204027920695,0.5909290099733638,-0.20382188260555267,-0.3257593810558319,-0.923221230506897,0.11130331169362422,0.0772752711052665,0.2936651735250177,0.9462561876166823,-0.018639780580997467,0.01860346645116806,-0.0083275455981493,-0.0014235228300094604,-0.019406497478485107,-0.00723797082901001
2025-09-20T02:20:07Z,0.08418536348440259,0.25855123243243044,0.5907238478759647,-0.20340245962142944,-0.3254891633987427,-0.9234090447425842,0.1110773695046613,0.07741449519625608,0.2935913975218708,0.9462942334633567,-0.02014915831387043,0.010592429898679256,-0.008932329714298248,-0.0023655593395233154,-0.02010422945022583,-0.0033320188522338867
2025-09-20T02:20:07Z,0.08437012799331496,0.25816312491652355,0.5905802582703081,-0.20321010053157806,-0.3251776099205017,-0.923561155796051,0.1108715561145268,0.07743899153622463,0.2935332098620142,0.9463344673577055,-0.02117655798792839,0.004228781443089247,-0.00935867428779602,-0.002304866909980774,-0.01944383978843689,-0.0027713775634765625
2025-09-20T02:20:07Z,0.0843226283793616,0.25770731237645284,0.5904905784901652,-0.20323456823825836,-0.32479023933410645,-0.9236920475959778,0.11066559341002548,0.07734701274121361,0.2934875355093568,0.9463803205614947,-0.022643567994236946,-0.007156779523938894,-0.006229284219443798,-0.0018925964832305908,-0.018307209014892578,-0.0033837556838989258
2025-09-20T02:20:07Z,0.08419389007468397,0.257227790269235,0.5904195957688256,-0.20333488285541534,-0.32437628507614136,-0.9238154292106628,0.11045956350432773,0.07721429287659261,0.2934462048741396,0.946428008249001,-0.02268507331609726,-0.004625515080988407,-0.007724158000200987,0.001216113567352295,-0.020352184772491455,-0.00792461633682251
2025-09-20T02:20:07Z,0.08415159124381554,0.25681602649368734,0.5901882935004962,-0.20334474742412567,-0.3240669071674347,-0.9239218235015869,0.11027919347187712,0.07712324240654814,0.29333387943913086,0.9464912081399267,-0.02230723574757576,-0.003468537935987115,-0.013801803812384605,0.001561880111694336,-0.022174090147018433,-0.012111008167266846
2025-09-20T02:20:07Z,0.08421968771526807,0.2563359566106196,0.5898086563466571,-0.20323923230171204,-0.3237360119819641,-0.9240610599517822,0.11005589278903884,0.07706664702286671,0.29315730529339534,0.9465764754016608,-0.026524923741817474,0.0006563698407262564,-0.021925784647464752,0.0019326359033584595,-0.021009594202041626,-0.01344764232635498
2025-09-20T02:20:07Z,0.08433725958664662,0.2557439354887745,0.5893539567470402,-0.20307907462120056,-0.3233242332935333,-0.9242404103279114,0.10977504167735236,0.07701360224445694,0.2929476797355485,0.9466783272703406,-0.028479240834712982,-0.001518381992354989,-0.02493637427687645,0.0005772262811660767,-0.02011522650718689,-0.011027634143829346
2025-09-20T02:20:07Z,0.0844485377540878,0.255197199636546,0.5888442075659274,-0.20292159914970398,-0.3229682445526123,-0.9243994355201721,0.10951871090117679,0.07696109042896433,0.2927116340219055,0.9467853109352141,-0.025497177615761757,-0.002842966001480818,-0.024850061163306236,0.0005240887403488159,-0.020362645387649536,-0.009604394435882568
2025-09-20T02:20:07Z,0.08455718729814529,0.25469679713445076,0.5883415710448611,-0.2027682512998581,-0.32265210151672363,-0.9245434999465942,0.10928447316522434,0.07691439789526197,0.2924788090867198,0.9468881066529448,-0.024116789922118187,-6.970507092773914e-05,-0.03324690833687782,0.003318086266517639,-0.024523019790649414,-0.009274125099182129
2025-09-20T02:20:07Z,0.08473560660316173,0.2541467380135472,0.5873540212254322,-0.20251092314720154,-0.32242244482040405,-0.9246799945831299,0.10903506664804452,0.07686742519256985,0.2920200057374686,0.947062266579853,-0.025487981736660004,-0.008418274112045765,-0.06170172989368439,0.0016759485006332397,-0.030750364065170288,-0.007652699947357178
2025-09-20T02:20:07Z,0.08485109424151926,0.25337136321143344,0.585606602748367,-0.20224542915821075,-0.3221948444843292,-0.9248174428939819,0.10871689749690158,0.07671792247497151,0.2911972665232973,0.9473642499936734,-0.03264768794178963,-0.018883537501096725,-0.08189744502305984,-0.00016276538372039795,-0.028544068336486816,-0.005996108055114746
2025-09-20T02:20:07Z,0.08496517979182304,0.25259578347367606,0.5838596900334568,-0.2019803524017334,-0.32196667790412903,-0.9249548316001892,0.10839862007250385,0.07656836132542628,0.2903742955195642,0.9476653931184366,-0.03980739414691925,-0.02934880182147026,-0.1020931601524353,-0.002001062035560608,-0.026338398456573486,-0.00433957576751709
2025-09-20T02:20:07Z,0.08494066706933967,0.25149769117940607,0.5815918025112994,-0.20179207623004913,-0.32158753275871277,-0.9251278042793274,0.10796672732803525,0.07628055203006412,0.2892957934850097,0.9480676697292478,-0.0543944388628006,-0.030125705525279045,-0.12607064843177795,-0.000632748007774353,-0.027101963758468628,-0.0065615177154541016
2025-09-20T02:20:07Z,0.08498766901775996,0.2500872263847188,0.5788033592803652,-0.20148558914661407,-0.3210661709308624,-0.9253756403923035,0.10739514364151254,0.0759563294326799,0.28797289260574876,0.9485612586175126,-0.06725992262363434,-0.04110309109091759,-0.15410193800926208,-0.0022596120834350586,-0.030050814151763916,-0.004140317440032959
2025-09-20T02:20:07Z,0.08490444798122758,0.24832482976076797,0.5754089067609498,-0.201238214969635,-0.3203893303871155,-0.9256640076637268,0.10669683011509676,0.07549103710857337,0.2863535536416286,0.949167214816868,-0.08012501895427704,-0.052558526396751404,-0.18458831310272217,-0.0034918934106826782,-0.030488908290863037,-0.0030524134635925293
2025-09-20T02:20:07Z,0.08475765120378,0.24634447448756286,0.5713739253522231,-0.20098742842674255,-0.3196870684623718,-0.9259612560272217,0.10592639241212934,0.07493421073300881,0.2844246421076774,0.9498773314823795,-0.09095284342765808,-0.06251272559165955,-0.2171746790409088,-0.0021041035652160645,-0.032613277435302734,-0.005071818828582764
2025-09-20T02:20:07Z,0.08466265270644557,0.24397596841716132,0.5666029826254264,-0.20061156153678894,-0.31883031129837036,-0.9263380765914917,0.10498902921157696,0.07431379157913544,0.28214556802624385,0.9507094891204292,-0.11070628464221954,-0.06114295870065689,-0.26778358221054077,-0.0007194429636001587,-0.0373539924621582,-0.010855555534362793
2025-09-20T02:20:07Z,0.08499873524709066,0.2410722054673884,0.5607288123079006,-0.19972047209739685,-0.31778356432914734,-0.9268901348114014,0.10377413512419904,0.07377373909759742,0.27935942072861153,0.951707211076955,-0.1319572776556015,-0.05009251832962036,-0.317022442817688,-0.0019225478172302246,-0.03783354163169861,-0.01131582260131836
2025-09-20T02:20:07Z,0.08528708620307793,0.2378890826789305,0.5542056722018575,-0.19879890978336334,-0.31665462255477905,-0.9274744391441345,0.10245365213970978,0.07314812993370447,0.27625605132784264,0.9528037949053157,-0.13480262458324432,-0.07518476247787476,-0.3343651592731476,-0.009421885013580322,-0.028788655996322632,0.0006064772605895996
2025-09-20T02:20:07Z,0.08516838110574491,0.2346905254925323,0.5475190807594319,-0.1982276886701584,-0.3155512511730194,-0.9279726147651672,0.10118406940969839,0.07232734432710264,0.27304874151061415,0.953925980669648,-0.1329970806837082,-0.09371911734342575,-0.33157387375831604,-0.009178981184959412,-0.019872575998306274,0.0010575056076049805
2025-09-20T02:20:07Z,0.08465059021307057,0.2315824046664035,0.5409732602741628,-0.19802986085414886,-0.31448760628700256,-0.9283758401870728,0.10000202155222697,0.07134390146391431,0.26988421691808095,0.9550246224480258,-0.12973259389400482,-0.10342977941036224,-0.32306107878685,-0.006053730845451355,-0.01797989010810852,-0.0047103166580200195
2025-09-20T02:20:07Z,0.08406627339090167,0.22856415461714574,0.5345809767028193,-0.1978990137577057,-0.31345996260643005,-0.9287512302398682,0.09886092822004212,0.07035606305775244,0.2667861120494103,0.9560865802687066,-0.12847961485385895,-0.09740094840526581,-0.3161649703979492,-0.0010289549827575684,-0.016761571168899536,-0.01022958755493164
2025-09-20T02:20:07Z,0.08359027905429049,0.2255315864105096,0.5285116757517783,-0.1976870894432068,-0.31232842803001404,-0.929177463054657,0.09768194827154857,0.06944177513890219,0.263843980032009,0.957090498945017,-0.13009195029735565,-0.08506815880537033,-0.2928042709827423,0.0004731714725494385,-0.010725855827331543,-0.010976791381835938
2025-09-20T02:20:07Z,0.08324543944752426,0.22259506140695937,0.5230405958658287,-0.19740413129329681,-0.31112027168273926,-0.9296428561210632,0.09650658356056907,0.06863883072025292,0.26119168920168095,0.9579948233931868,-0.12115628272294998,-0.07577356696128845,-0.25377076864242554,-0.0007383078336715698,-0.005843520164489746,-0.008743345737457275
2025-09-20T02:20:07Z,0.08265457716065051,0.2199671969461505,0.5184490937605805,-0.19743666052818298,-0.30995458364486694,-0.9300252199172974,0.09547769229649772,0.0678052332673326,0.2589481253895267,0.9587660219414739,-0.10523658990859985,-0.07729526609182358,-0.2126777619123459,0.0007762610912322998,-0.006420999765396118,-0.008459925651550293
2025-09-20T02:20:07Z,0.08227939542201883,0.21773839762497058,0.5145624253388736,-0.19734367728233337,-0.3089616894721985,-0.9303752779960632,0.09458586662258178,0.06716282711232756,0.257053384878313,0.9594092503152656,-0.10062682628631592,-0.060833774507045746,-0.20408926904201508,0.0038576871156692505,-0.012358158826828003,-0.012336969375610352
2025-09-20T02:20:07Z,0.08189552822309477,0.21551101784858512,0.5106767873840509,-0.19725506007671356,-0.30796775221824646,-0.9307235479354858,0.09369353758820423,0.06652006207612943,0.2551572885429889,0.9600475127858928,-0.09601706266403198,-0.044372279196977615,-0.19550079107284546,0.006943494081497192,-0.018296390771865845,-0.016215860843658447
2025-09-20T02:20:07Z,0.08181605209436357,0.21320603706386815,0.5068179745057008,-0.19687999784946442,-0.30689382553100586,-0.9311575889587402,0.09272215507628742,0.0660188384879758,0.2532862800527309,0.9606716664282463,-0.09961621463298798,-0.03901052102446556,-0.19929084181785583,0.005893245339393616,-0.020154356956481934,-0.01311945915222168
2025-09-20T02:20:07Z,0.0818682621153888,0.21098518547603223,0.5029002737684293,-0.1963742971420288,-0.3059101998806,-0.9315879344940186,0.09177496775835631,0.06559232661318602,0.2513918510893546,0.9612892920509231,-0.09251981228590012,-0.0446116104722023,-0.19409948587417603,0.004500389099121094,-0.019404232501983643,-0.007982254028320312
2025-09-20T02:20:08Z,0.08176982080306805,0.2089476964091156,0.4990169960028886,-0.19601291418075562,-0.30508264899253845,-0.9319353699684143,0.0909324127679025,0.06512093530336267,0.24950658689996566,0.9618924058144077,-0.07942230254411697,-0.049536436796188354,-0.19711969792842865,0.0038908571004867554,-0.023370862007141113,-0.00798410177230835
2025-09-20T02:20:08Z,0.08156564386692017,0.2071088234434499,0.4950611944479037,-0.19574330747127533,-0.30445370078086853,-0.9321976900100708,0.09019950478743612,0.06462261213386668,0.2475815017126877,0.9624922341962284,-0.07068205624818802,-0.04977038875222206,-0.19860100746154785,0.00409582257270813,-0.02212044596672058,-0.010310590267181396
2025-09-20T02:20:08Z,0.08140807447217986,0.20539287098072284,0.4911245701059564,-0.19543112814426422,-0.30393004417419434,-0.9324340224266052,0.08951787909764751,0.06416526846484708,0.24566718759677186,0.9630768092462355,-0.07148490846157074,-0.049764908850193024,-0.19216465950012207,0.0038442760705947876,-0.018338143825531006,-0.010576128959655762
2025-09-20T02:20:08Z,0.08125136234453662,0.20371059054819823,0.48745672435841925,-0.19514364004135132,-0.30336421728134155,-0.9326784610748291,0.08884232910037815,0.06372712330884904,0.24388127813466373,0.9636221703620613,-0.07029340416193008,-0.03617138788104057,-0.17849119007587433,0.004404813051223755,-0.01759853959083557,-0.012968957424163818
2025-09-20T02:20:08Z,0.08141823686538119,0.20202167908480886,0.48382203670056606,-0.19455410540103912,-0.3027819097042084,-0.9329907894134521,0.08812198119354854,0.06344828556453899,0.24212433093131455,0.9641496586023116,-0.06916463375091553,-0.024537865072488785,-0.18693497776985168,0.005286291241645813,-0.024647653102874756,-0.015115916728973389
2025-09-20T02:20:08Z,0.08185792828199605,0.20032537066765166,0.4799727411447337,-0.19368252158164978,-0.3022478222846985,-0.9333452582359314,0.08737128511468271,0.06329360467441673,0.2402743185506347,0.9646907991867986,-0.07231876999139786,-0.01386372558772564,-0.20254063606262207,0.005049020051956177,-0.0257643461227417,-0.015915095806121826
2025-09-20T02:20:08Z,0.08237895068340267,0.19849677146480105,0.47581675154527214,-0.19269347190856934,-0.30167174339294434,-0.933736264705658,0.08655627807338596,0.06315277108568053,0.23827698773194952,0.9652687386435825,-0.07755634933710098,-0.011619560420513153,-0.21267735958099365,0.0025225281715393066,-0.02252909541130066,-0.01333528757095337
2025-09-20T02:20:08Z,0.08289015574480267,0.19661513189070418,0.4715217149845445,-0.19169160723686218,-0.3010815680027008,-0.9341328740119934,0.08572087365853807,0.0629988376797318,0.23620959901847405,0.9658612626955536,-0.07590504735708237,-0.021974459290504456,-0.21797466278076172,0.0005990862846374512,-0.01971760392189026,-0.007834136486053467
2025-09-20T02:20:08Z,0.08319492515337892,0.19481016327895337,0.46718626203984276,-0.1908746361732483,-0.30056989192962646,-0.9344648718833923,0.0849476919225868,0.06275597115948138,0.2341124527188668,0.9664558284121307,-0.06960479170084,-0.03280053660273552,-0.21893098950386047,1.5810132026672363e-05,-0.01886516809463501,-0.006165921688079834
2025-09-20T02:20:08Z,0.08331807637236266,0.19311855330544045,0.4628267062004136,-0.19022217392921448,-0.30016598105430603,-0.9347277283668518,0.08425053432864371,0.06244060288268906,0.23199511108026066,0.9670477243858141,-0.0668296068906784,-0.03724506124854088,-0.2179577797651291,-0.0004628300666809082,-0.017063796520233154,-0.006235659122467041
