timestamp,attitude_roll,attitude_pitch,attitude_yaw,gravity_x,gravity_y,gravity_z,quaternion_x,quaternion_y,quaternion_z,quaternion_w,rotation_rate_x,rotation_rate_y,rotation_rate_z,user_acceleration_x,user_acceleration_y,user_acceleration_z
2025-09-20T02:23:58Z,0.001347561906594496,0.037330758932885455,0.019409812122196526,-0.16915000975131989,-0.3937823176383972,-0.9035063982009888,0.01865687365765557,0.0008547640908168771,0.009715635502072538,0.9997784320073165,0.002515633823350072,0.00410842802375555,-0.004337711725383997,0.0048703402280807495,-0.012038737535476685,-0.012188196182250977
2025-09-20T02:23:58Z,0.0014975204716259,0.03751196476304221,0.019323541435061552,-0.1689835786819458,-0.3939606547355652,-0.9034597873687744,0.01874676840636284,0.0009297959832414401,0.009673960208184092,0.9997770675150177,0.00463586300611496,0.006726901512593031,-0.007463539019227028,0.005802035331726074,-0.013075858354568481,-0.012391507625579834
2025-09-20T02:23:59Z,0.0016475126625086845,0.03769315897519463,0.019237255116188567,-0.16881713271141052,-0.39413899183273315,-0.9034131169319153,0.018836663173470315,0.0010048364441121445,0.009632290860584281,0.999775701524271,0.006756092421710491,0.009345375001430511,-0.010589366778731346,0.006733685731887817,-0.014113008975982666,-0.012594878673553467
2025-09-20T02:23:59Z,0.0017455148798307552,0.037832217331251174,0.01903374178610515,-0.16865547001361847,-0.394299179315567,-0.9033734202384949,0.018905812043979797,0.001052570280326469,0.00953152822907394,0.9997753059779901,0.00023179268464446068,0.0037384266033768654,-0.011482416652143002,0.007636129856109619,-0.011703252792358398,-0.010910391807556152
2025-09-20T02:23:59Z,0.001728292875296,0.037710039845691566,0.018789102787960303,-0.16858290135860443,-0.394230455160141,-0.9034169316291809,0.01884494639018258,0.0010410758418719244,0.009409031336861254,0.9997776352084254,-0.004436983726918697,-0.009377645328640938,-0.010317916050553322,0.00697055459022522,-0.009688735008239746,-0.0075514912605285645
2025-09-20T02:23:59Z,0.0015052536199759853,0.03760772956236794,0.018614454415647512,-0.1687214970588684,-0.39416778087615967,-0.9034184217453003,0.018794932231123256,0.0009274599624882964,0.009319595068646895,0.9997795575121633,-0.0068794796243309975,-0.0195319764316082,-0.0013833604753017426,0.00702492892742157,-0.007647573947906494,-0.006665825843811035
2025-09-20T02:23:59Z,0.0010402073995772164,0.03745074131184338,0.01863119561222139,-0.1691475510597229,-0.3940230906009674,-0.9034018516540527,0.018718616956468915,0.0006944151973263251,0.009323566679409449,0.9997810919216831,-0.007707805372774601,-0.024250956252217293,0.005623746197670698,0.006632968783378601,-0.008058726787567139,-0.00885838270187378
2025-09-20T02:23:59Z,0.0005905368515770536,0.03733572522522207,0.01879015999361676,-0.16961096227169037,-0.39389219880104065,-0.903372049331665,0.0186631791566397,0.00047057718835360904,0.009398815353161042,0.9997815945048091,-0.007783064153045416,-0.01823411136865616,0.015755081549286842,0.007699206471443176,-0.007356971502304077,-0.012088358402252197
2025-09-20T02:23:59Z,0.00022087169585067638,0.03718421334082987,0.019154615500852377,-0.17007602751255035,-0.39369332790374756,-0.903371274471283,0.01858912481384822,0.0002884610244043412,0.009577558816016308,0.9997813213651447,-0.002824699506163597,-0.0162906963378191,0.020442645996809006,0.007837563753128052,-0.007987141609191895,-0.012870371341705322
2025-09-20T02:23:59Z,-0.00010676739837614135,0.03716174336120603,0.01965437160203649,-0.17055180668830872,-0.39358794689178467,-0.9033275246620178,0.018579429591712535,0.00012921231844895508,0.009824339323495612,0.9997791254141526,-0.003102849004790187,-0.013619289733469486,0.023307740688323975,0.004479706287384033,-0.010912269353866577,-0.013276517391204834
2025-09-20T02:23:59Z,-0.0002574534604024469,0.03715313050740388,0.02005286661463738,-0.17083127796649933,-0.3935122787952423,-0.9033076763153076,0.01857585304108285,5.754479896229032e-05,0.010022144053167016,0.9997772417699549,0.0006583859212696552,-0.0110813919454813,0.018941858783364296,0.003116413950920105,-0.01351216435432434,-0.013723969459533691
2025-09-20T02:23:59Z,-0.00043123881739168805,0.037186047520013046,0.020415897045200374,-0.171118825674057,-0.393480122089386,-0.9032672643661499,0.018593182795050824,-2.5788536150145837e-05,0.010201997381697019,0.9997751475333033,0.000323333078995347,-0.00933212973177433,0.014490680769085884,0.0021803677082061768,-0.013429909944534302,-0.014011263847351074
2025-09-20T02:23:59Z,-0.0006482965508882321,0.03717431394091489,0.02075245691493411,-0.1714358925819397,-0.3934120237827301,-0.9032368063926697,0.01858844821723879,-0.00013122481679746955,0.010368225189505078,0.9997734395968583,-0.0019211405888199806,-0.007313858717679977,0.009482571855187416,0.003973439335823059,-0.013715922832489014,-0.013462245464324951
2025-09-20T02:23:59Z,-0.0007132557537581932,0.037127345759792846,0.02084466625184083,-0.17152774333953857,-0.3933538496494293,-0.90324467420578,0.018565313654976868,-0.00016308489911846054,0.010413728528846405,0.9997733958628212,-0.0017985982121899724,-0.00421233382076025,0.003801435697823763,0.0028848648071289062,-0.012255102396011353,-0.01235055923461914
2025-09-20T02:23:59Z,-0.0008894731364895824,0.03702983616727683,0.02084775118407898,-0.171688050031662,-0.3932652473449707,-0.9032528400421143,0.018517487791945026,-0.000251653506357706,0.01041366596268475,0.9997742628099648,-0.0072157373651862144,-0.008642230182886124,-0.0008911206386983395,0.0027612000703811646,-0.011569380760192871,-0.011641383171081543
2025-09-20T02:23:59Z,-0.0010874402304529695,0.03686471370518837,0.020783499134736212,-0.17184382677078247,-0.39312705397605896,-0.9032833576202393,0.018435964092446584,-0.00035206825935289537,0.010379774682765746,0.9997761159852513,-0.007035898510366678,-0.010008851997554302,-0.002318143378943205,0.003166407346725464,-0.011303484439849854,-0.011146903038024902
2025-09-20T02:23:59Z,-0.001285438409573302,0.036699656038585535,0.020719217073565797,-0.17199963331222534,-0.3929888904094696,-0.9033138155937195,0.01835446689476066,-0.0004524935459820546,0.010345884534253873,0.9997779137421565,-0.006856059655547142,-0.01137547381222248,-0.003745165653526783,0.0035716742277145386,-0.011037617921829224,-0.010652482509613037
2025-09-20T02:23:59Z,-0.001535269061586026,0.03659655540151251,0.020661074465849374,-0.17220447957515717,-0.39290568232536316,-0.903311014175415,0.01830420275338002,-0.0005784479122132611,0.010314575791941291,0.9997791305701063,-0.003179787192493677,-0.011968999169766903,-0.002631074981763959,0.001737341284751892,-0.010743945837020874,-0.011211097240447998
2025-09-20T02:23:59Z,-0.0016800680346076569,0.036587730888321235,0.02054185952179993,-0.17229242622852325,-0.39291808009147644,-0.9032888412475586,0.018300498778655493,-0.0006519678796580873,0.010253660439897512,0.9997798117592238,4.222383722662926e-05,-0.005430379882454872,-0.002967394655570388,0.0033549219369888306,-0.010173976421356201,-0.012865602970123291
2025-09-20T02:23:59Z,-0.0018613843647046176,0.03657704045159632,0.02064964866136125,-0.17249496281147003,-0.39289000630378723,-0.9032623767852783,0.018296124528101903,-0.000741674993415171,0.010305890128956741,0.9997792766211282,0.00254491763189435,-0.00781739316880703,0.007881082594394684,0.003034376772120595,-0.008158550597727299,-0.010766576044261456
2025-09-20T02:23:59Z,-0.0018470110527784773,0.036665763126239294,0.020900023173433827,-0.17257194221019745,-0.3929274082183838,-0.9032314419746399,0.018340494047089664,-0.000731735252765179,0.010431131886330613,0.9997771542067935,0.002204302465543151,0.006144057959318161,0.009462892077863216,0.004747852683067322,-0.010639309883117676,-0.014265954494476318
2025-09-20T02:23:59Z,-0.0015231056161613187,0.0367285984724274,0.02109334295317811,-0.17234884202480316,-0.3929511606693268,-0.9032636880874634,0.018370269954672714,-0.0005677142690399222,0.010530710278463482,0.9997756766047688,0.000682090874761343,0.024715609848499298,0.007129224948585033,0.006530284881591797,-0.012266099452972412,-0.017548084259033203
2025-09-20T02:23:59Z,-0.0009326723421726517,0.036696891915236625,0.021241128536739262,-0.17186862230300903,-0.39289724826812744,-0.9033786058425903,0.018351330896955956,-0.0002713751339339356,0.01061001981682827,0.9997752992063555,-0.0057055335491895676,0.030571360141038895,0.005623044446110725,0.004772603511810303,-0.010442405939102173,-0.01595968008041382
2025-09-20T02:23:59Z,-0.00035039288897400735,0.03647722140038235,0.021344665694475767,-0.17137983441352844,-0.3926810920238495,-0.9035654664039612,0.018238429106085845,1.9476683835974617e-05,0.010667159572293526,0.9997768132256918,-0.011659268289804459,0.021938636898994446,0.004548090510070324,0.002968132495880127,-0.0089033842086792,-0.011805951595306396
2025-09-20T02:23:59Z,2.1523108757732407e-05,0.036218051698651325,0.021369787308191033,-0.17105281352996826,-0.39244261384010315,-0.9037310481071472,0.018106885916807168,0.0002042378833736062,0.010683132383438683,0.999779046174944,-0.013119391165673733,0.0113831153139472,-0.0007311534136533737,0.00261572003364563,-0.011038929224014282,-0.009621739387512207
2025-09-20T02:23:59Z,0.0001495736258079895,0.03601959142529533,0.02128535947163143,-0.17090672254562378,-0.39227768778800964,-0.9038302898406982,0.018007004981462682,0.0002664289059508593,0.010642098785208259,0.9997812667897082,-0.007597131188958883,0.0011870302259922028,-0.005886242259293795,0.0034694522619247437,-0.01155802607536316,-0.008210361003875732
2025-09-20T02:23:59Z,0.00014965140494148878,0.035917378145098655,0.021125750976885835,-0.1708492636680603,-0.39221253991127014,-0.9038693904876709,0.01795593066994307,0.0002644910990095174,0.010562318802082452,0.9997830087659683,-0.002579694613814354,-0.0036569670774042606,-0.0055425274185836315,0.0033588707447052,-0.010275602340698242,-0.00838005542755127
2025-09-20T02:23:59Z,5.330691627593909e-05,0.0358833300366711,0.021026866507534697,-0.17090080678462982,-0.39219868183135986,-0.90386563539505,0.017939429248175626,0.00021526254813811378,0.01051202475529882,0.9997838755933003,-0.00020444300025701523,-0.004889597184956074,-0.0009952550753951073,0.003443107008934021,-0.008161455392837524,-0.009859681129455566
2025-09-20T02:23:59Z,4.05046757047393e-06,0.03591087659372913,0.021031797478131553,-0.17094705998897552,-0.39222267270088196,-0.9038465023040771,0.017953459979542775,0.0001908287564375415,0.010514046497538818,0.9997834951194063,-0.0005388744175434113,0.0003120158798992634,0.0023516302462667227,0.0043783038854599,-0.008540540933609009,-0.012537956237792969
2025-09-20T02:23:59Z,0.00011291621841413585,0.035910036785394096,0.02108446571411005,-0.17086760699748993,-0.3922129273414612,-0.9038657546043396,0.017952460915609425,0.0002457181817935878,0.01054135194612355,0.9997832385955182,-0.001252628630027175,0.00580122834071517,0.003884376958012581,0.0051692575216293335,-0.010528981685638428,-0.0141562819480896
2025-09-20T02:23:59Z,0.0002561354100966661,0.035871733324103316,0.021157672877590288,-0.17076446115970612,-0.39216580986976624,-0.9039056897163391,0.017932546733269362,0.00031776682619177757,0.010579234268418449,0.9997831795457509,-0.0023507133591920137,0.004026802256703377,0.0030828514136373997,0.0047042518854141235,-0.011152833700180054,-0.013445854187011719
2025-09-20T02:23:59Z,0.0003993372137212593,0.03583338386718625,0.021230894672661135,-0.1706613451242447,-0.3921186327934265,-0.9039456248283386,0.01791260426148366,0.0003898052531272637,0.01061712093548857,0.9997831160100931,-0.003448798321187496,0.0022523761726915836,0.0022813258692622185,0.004239246249198914,-0.01177668571472168,-0.012735426425933838
2025-09-20T02:23:59Z,0.0004620026055497116,0.03576938442649552,0.021270650373771984,-0.17061898112297058,-0.3920539915561676,-0.9039816856384277,0.017880270142767767,0.0004211470630906769,0.010637554247063434,0.9997834809857622,-0.0042688362300395966,-0.0020883209072053432,0.0010048496769741178,0.004010647535324097,-0.012083351612091064,-0.012386202812194824
2025-09-20T02:23:59Z,0.000456652743595436,0.035897180148416155,0.022242240359563722,-0.1709730327129364,-0.39200329780578613,-0.9039367437362671,0.017943976409383725,0.00042786902614554503,0.011123196512555215,0.9997770761947498,0.004847549833357334,0.014378190040588379,0.04591970890760422,0.00620231032371521,-0.00439530611038208,-0.01732581853866577
2025-09-20T02:23:59Z,0.0004511896197402999,0.036024976120934624,0.023213849858145962,-0.17132702469825745,-0.3919522166252136,-0.9038918614387512,0.01800768115991593,0.00043459655326979254,0.011608843432983369,0.9997704253077172,0.013963935896754265,0.03084470145404339,0.09083457291126251,0.008393913507461548,0.003292381763458252,-0.02226543426513672
2025-09-20T02:23:59Z,0.0004455820378326825,0.03615280104884419,0.024185452992334378,-0.1716809868812561,-0.39190083742141724,-0.9038469791412354,0.018071398872298534,0.00044131398761889095,0.012094481598922329,0.9997635339437182,0.02308032289147377,0.0473112091422081,0.1357494294643402,0.010585486888885498,0.010979801416397095,-0.02720499038696289
2025-09-20T02:23:59Z,0.0013717292580459586,0.036632163021090236,0.02694854834504523,-0.1718352735042572,-0.3918575048446655,-0.9038364887237549,0.018304149448703833,0.0009324617535900154,0.013484162735367967,0.9997411751964105,0.03521636128425598,0.08200260996818542,0.20869587361812592,0.012036561965942383,0.01892489194869995,-0.028689801692962646
2025-09-20T02:23:59Z,0.0030391072069765332,0.03739555050245184,0.03162406035109104,-0.17200309038162231,-0.39173460006713867,-0.9038578271865845,0.018670303715776812,0.0018147172193599898,0.015836995230991892,0.9996986797434545,0.04474759101867676,0.11278504133224487,0.29165947437286377,0.011225298047065735,0.022820472717285156,-0.026173114776611328
2025-09-20T02:23:59Z,0.005216924760433301,0.038405499895515754,0.038242196086831756,-0.1723994016647339,-0.3914831876754761,-0.9038912057876587,0.01914813067614589,0.0029746333658156724,0.019166420790911076,0.9996284715756962,0.055681824684143066,0.13750988245010376,0.3825022578239441,0.00851324200630188,0.025244593620300293,-0.022309541702270508
2025-09-20T02:23:59Z,0.00786691414009357,0.03963042399356495,0.04684522818452808,-0.17306728661060333,-0.39105328917503357,-0.9039496779441833,0.01971622311716733,0.004395643965398471,0.023493610408835398,0.9995198307285106,0.07012726366519928,0.16210851073265076,0.4833204746246338,0.007502838969230652,0.027140021324157715,-0.02106684446334839
2025-09-20T02:23:59Z,0.010958155104922571,0.04124073441960514,0.057506564583334085,-0.17405228316783905,-0.3905668258666992,-0.9039708971977234,0.020452588484903052,0.006068391758346344,0.028855702705412548,0.9993558924327097,0.09023771435022354,0.19204416871070862,0.5858438014984131,0.007934093475341797,0.025466233491897583,-0.021341323852539062
2025-09-20T02:23:59Z,0.014686880445498155,0.04341108350242308,0.07020039739667845,-0.17515748739242554,-0.39016246795654297,-0.9039320349693298,0.02143224319662188,0.008098754108922806,0.0352430594840576,0.9991161398831108,0.11874637007713318,0.2305697798728943,0.6843217611312866,0.009765759110450745,0.02059313654899597,-0.023655176162719727
2025-09-20T02:23:59Z,0.01906782186449161,0.04623128405090206,0.08468358889910348,-0.17627249658107758,-0.3899400532245636,-0.9038112163543701,0.022688369320478585,0.01050101056112181,0.04253607385856099,0.9987820863493136,0.14661212265491486,0.26644060015678406,0.7613233327865601,0.010715886950492859,0.011729776859283447,-0.024867236614227295
2025-09-20T02:23:59Z,0.024015030345510904,0.04970144567588261,0.10066853671179869,-0.17736276984214783,-0.38992875814437866,-0.9036027789115906,0.024210972278559346,0.01323841258313561,0.050591835347771466,0.9983381522885255,0.17394289374351501,0.3034079968929291,0.8368587493896484,0.009361252188682556,0.008701980113983154,-0.02412092685699463
2025-09-20T02:23:59Z,0.0294987891435426,0.05385554229884868,0.11807131755079969,-0.1784145087003708,-0.3901499807834625,-0.9033002257347107,0.026004800595254157,0.0163062386887699,0.05936998117358238,0.9977640430742579,0.19942709803581238,0.3290848135948181,0.9072471857070923,0.00711388885974884,0.007606059312820435,-0.020123183727264404
2025-09-20T02:23:59Z,0.03544220694956355,0.05889342050976518,0.13769343539861192,-0.17975647747516632,-0.3905867636203766,-0.9028452634811401,0.028149609655643257,0.019695630289044294,0.0692722124983904,0.9970060448447617,0.21671225130558014,0.3497832417488098,0.9776615500450134,0.004589930176734924,0.008907973766326904,-0.017903566360473633
2025-09-20T02:23:59Z,0.0412873052188092,0.06404669082519933,0.15729136338325495,-0.18110999464988708,-0.39099496603012085,-0.9023979902267456,0.030291189387766867,0.023082766570701706,0.07916649532950032,0.9961337141510842,0.2339974045753479,0.3704816997051239,1.0480759143829346,0.0020774900913238525,0.01018136739730835,-0.015676259994506836
2025-09-20T02:23:59Z,0.04735359745809391,0.06973416001484418,0.17846158713296412,-0.18271462619304657,-0.3913918435573578,-0.9019023180007935,0.032603176845585606,0.026671655328680564,0.08985531439157589,0.9950637062700136,0.24689143896102905,0.3840680718421936,1.1074928045272827,0.0008082836866378784,0.006356149911880493,-0.013195514678955078
2025-09-20T02:23:59Z,0.05354258638495159,0.07588978487633155,0.20071243256354487,-0.1844760626554489,-0.39179959893226624,-0.9013665914535522,0.035051480509905315,0.03041358189627718,0.10109020758689345,0.9937944046172691,0.25677627325057983,0.3973386883735657,1.148606538772583,-0.000288352370262146,-0.00020366907119750977,-0.011103451251983643
2025-09-20T02:23:59Z,0.059709497706618014,0.08241451338246192,0.22372073034647277,-0.1864013820886612,-0.3921845555305481,-0.9008028507232666,0.037590607790975464,0.03423507430179019,0.11270478745691341,0.9923268148956905,0.2629534900188446,0.4004118740558624,1.1830377578735352,-0.0018346905708312988,-0.0025878548622131348,-0.008138597011566162
2025-09-20T02:23:59Z,0.06566567629358488,0.08912703609447074,0.247251914546034,-0.18856725096702576,-0.3924288749694824,-0.9002454876899719,0.04014103497751033,0.038034469441673685,0.12457371709086694,0.9906682008438308,0.25692251324653625,0.39970046281814575,1.195932149887085,-0.0022639483213424683,-0.008064866065979004,-0.00821375846862793
2025-09-20T02:23:59Z,0.07157102228729746,0.09583180544951087,0.27079712241563536,-0.19065551459789276,-0.3924799859523773,-0.8997832536697388,0.042604865520305055,0.04187105762876039,0.13644197168769415,0.988845406794671,0.24619701504707336,0.4089243710041046,1.1831588745117188,-0.00037923455238342285,-0.01620081067085266,-0.012623786926269531
2025-09-20T02:24:00Z,0.07750067420969371,0.10236183915859629,0.2938991176163802,-0.19245167076587677,-0.39231348037719727,-0.8994734883308411,0.044904190635282365,0.04575800193400499,0.14808029865348957,0.986895180324646,0.22948043048381805,0.40980350971221924,1.1529418230056763,-0.001062735915184021,-0.022302746772766113,-0.010699808597564697
2025-09-20T02:24:00Z,0.08329393161394023,0.10850095048175976,0.3162287452914312,-0.1939994841814041,-0.3918408751487732,-0.8993469476699829,0.04695500368517464,0.049585570714230906,0.15931784145319167,0.9848626258726884,0.20430758595466614,0.4046981930732727,1.099719762802124,-0.0019748657941818237,-0.030686557292938232,-0.00891965627670288
2025-09-20T02:24:00Z,0.08876805077401553,0.11410348163337329,0.3372033375878171,-0.19529981911182404,-0.3911137580871582,-0.8993819952011108,0.048723645274167594,0.053228040722068465,0.16986011046979135,0.9828226463431949,0.1719144582748413,0.3790634572505951,1.0190287828445435,-0.004296973347663879,-0.039056092500686646,-0.004166007041931152
2025-09-20T02:24:00Z,0.09385362848839982,0.11904104369672559,0.35655835432467525,-0.1963544636964798,-0.390122652053833,-0.8995828032493591,0.05017406997275931,0.05662164217490841,0.17957358588788006,0.9808312311225663,0.14190219342708588,0.34761473536491394,0.9438989162445068,-0.005421951413154602,-0.0399211049079895,0.001563727855682373
2025-09-20T02:24:00Z,0.09818145362411694,0.12341099317512218,0.37462530254664994,-0.19761164486408234,-0.3888900876045227,-0.8998411893844604,0.051394127542808886,0.059590542864682385,0.18861401225292515,0.9788934050657409,0.1188601478934288,0.3032689094543457,0.8791467547416687,-0.0077573806047439575,-0.03771770000457764,0.007961392402648926
2025-09-20T02:24:00Z,0.10187516974468722,0.12728759961016378,0.39151368958766275,-0.19900929927825928,-0.3874725103378296,-0.900144636631012,0.05242171400736937,0.06219688710569631,0.19703983169331668,0.9770152482553007,0.1003371998667717,0.2609594762325287,0.8160065412521362,-0.00718139111995697,-0.037403643131256104,0.0069068074226379395
2025-09-20T02:24:00Z,0.1048926911753441,0.13064720049436307,0.407171259722735,-0.20058587193489075,-0.3858831822872162,-0.9004773497581482,0.05326488981729163,0.0644099085772926,0.20482488305578878,0.9752235585699861,0.07568579912185669,0.23395147919654846,0.7559139132499695,-0.003069564700126648,-0.03710281848907471,0.00109177827835083
2025-09-20T02:24:00Z,0.10751250710245097,0.13351794035561107,0.42152205501950946,-0.20208784937858582,-0.38418665528297424,-0.9008668661117554,0.05392343822466758,0.06636009985516256,0.21194160460500192,0.973534516929713,0.05928546190261841,0.21568948030471802,0.6831005215644836,0.0002299100160598755,-0.043052494525909424,-0.0020970702171325684
2025-09-20T02:24:00Z,0.10950117127101457,0.13581442567977345,0.4336246834006442,-0.20349831879138947,-0.3826052248477936,-0.9012223482131958,0.05442231815768201,0.06789382749846355,0.2179265851991415,0.9720786010989483,0.04858236387372017,0.18677043914794922,0.6179085373878479,-0.0010502636432647705,-0.04162999987602234,-0.0032368898391723633
2025-09-20T02:24:00Z,0.11146222615246207,0.1381345112920854,0.44572644512895465,-0.20488810539245605,-0.3810069262981415,-0.9015845060348511,0.05491896297836622,0.06942478610159096,0.2239027149393965,0.9705831481699634,0.03787926584482193,0.15785138309001923,0.5527165532112122,-0.002351135015487671,-0.0402243435382843,-0.0043700337409973145
2025-09-20T02:24:00Z,0.11312489055191605,0.14006682857319913,0.456364314207142,-0.20612172782421112,-0.37947794795036316,-0.9019480347633362,0.05529667353837554,0.07073574242720684,0.22914517256776437,0.9692425817440568,0.027376331388950348,0.15537980198860168,0.4990863800048828,-0.0011819303035736084,-0.038130760192871094,-0.008175849914550781
2025-09-20T02:24:00Z,0.11486619015454273,0.14174709213003756,0.46590616289479964,-0.2069692760705948,-0.37803637981414795,-0.9023592472076416,0.055569871041836416,0.07203147784570042,0.23384766690945308,0.9680075846750852,0.026050711050629616,0.15113767981529236,0.4426548182964325,-0.00020560622215270996,-0.04152435064315796,-0.0064285993576049805
2025-09-20T02:24:00Z,0.11662202207055143,0.14335455718355353,0.47408819951509235,-0.20744232833385468,-0.3769278824329376,-0.9027142524719238,0.05584466225894952,0.07329186485254637,0.23788626563850657,0.9669124946232827,0.030758433043956757,0.135306254029274,0.37367725372314453,-0.0019019991159439087,-0.046637922525405884,-0.004018962383270264
2025-09-20T02:24:00Z,0.11808435528455204,0.1448728629580572,0.48089418962568936,-0.20782528817653656,-0.3761514723300934,-0.9029499888420105,0.056153459514475756,0.07436470252075557,0.24124626272070063,0.9659797767075061,0.03223906084895134,0.1074068546295166,0.3115411698818207,-0.004563271999359131,-0.042544782161712646,-0.0006545782089233398
2025-09-20T02:24:00Z,0.11909058638190662,0.1462670507259224,0.48651407835921445,-0.20831795036792755,-0.37562432885169983,-0.9030559062957764,0.05649584080885858,0.07517208250032702,0.24401574459761607,0.9652013549679996,0.03267549350857735,0.07202024757862091,0.25736004114151,-0.00636957585811615,-0.03874939680099487,0.0019315481185913086
2025-09-20T02:24:00Z,0.11968058975852157,0.14762206735340463,0.49097679945293754,-0.20890170335769653,-0.37541642785072327,-0.9030075073242188,0.05691031358252043,0.07574355875410206,0.24621258116241984,0.9645742575813355,0.03852473571896553,0.046337492763996124,0.19807729125022888,-0.00555071234703064,-0.0385587215423584,0.0005176067352294922
2025-09-20T02:24:00Z,0.11980900893964205,0.14901167869980875,0.4944331941265843,-0.2096613049507141,-0.3755483627319336,-0.9027765989303589,0.0574347910501858,0.07606996561977238,0.2479104728999082,0.9640824995255982,0.04434792697429657,0.01836080476641655,0.15571102499961853,-0.007659897208213806,-0.031419575214385986,0.0007663369178771973
2025-09-20T02:24:00Z,0.11953472444702369,0.15033055146542368,0.4972131749537348,-0.21061921119689941,-0.375827431678772,-0.9024374485015869,0.05800014245232781,0.07617621902311816,0.24926840364263583,0.9636900038766009,0.041110944002866745,0.0034290049225091934,0.13265809416770935,-0.005504027009010315,-0.022319376468658447,-0.002719581127166748
2025-09-20T02:24:00Z,0.11916344071752635,0.15146721122404527,0.49957132716363256,-0.21155549585819244,-0.3760780990123749,-0.9021139144897461,0.05850554991770399,0.07620307033319305,0.25041585902770785,0.96335982356192,0.036744195967912674,-0.004762708209455013,0.11251689493656158,-0.002342015504837036,-0.01977020502090454,-0.006808042526245117
2025-09-20T02:24:00Z,0.11870354694805627,0.15252387265381234,0.5015261792406532,-0.21247237920761108,-0.37638428807258606,-0.9017707109451294,0.05899885640283709,0.0761669357243267,0.251364235680001,0.9630856080724874,0.036109812557697296,-0.004905582405626774,0.08966038376092911,0.00014130771160125732,-0.021674662828445435,-0.009992837905883789
2025-09-20T02:24:00Z,0.11837823611608075,0.15353857355400036,0.5030843186958093,-0.2131725698709488,-0.3767775595188141,-0.9014411568641663,0.05947016498945311,0.07617972116366553,0.2521242221748616,0.9628569459801978,0.03966538980603218,-0.0035083345137536526,0.07096100598573685,0.00022952258586883545,-0.02203148603439331,-0.01138758659362793
2025-09-20T02:24:00Z,0.11808761997441101,0.15459361160126997,0.5042836316850409,-0.21375922858715057,-0.3773179352283478,-0.9010761380195618,0.05997022794639304,0.07620415552860045,0.2527128894542724,0.9626695563782354,0.045443013310432434,-0.007678469642996788,0.057293109595775604,-0.0018593519926071167,-0.019685804843902588,-0.011079013347625732
2025-09-20T02:24:00Z,0.11770505040906029,0.15563795682122772,0.5053883689341706,-0.21440578997135162,-0.37787824869155884,-0.9006876349449158,0.06048035848597265,0.07618077779932259,0.25325267950988645,0.9624976375243882,0.04456210508942604,-0.010309187695384026,0.05853228643536568,-0.003151997923851013,-0.012904047966003418,-0.010551273822784424
2025-09-20T02:24:00Z,0.11739713563027115,0.15673513018302138,0.5066015193741416,-0.2150118499994278,-0.3784497082233429,-0.9003031253814697,0.06100239762123278,0.07620367975854869,0.2538475078162072,0.9623061621908269,0.04633389413356781,-0.00505429320037365,0.06014084070920944,-0.0025178641080856323,-0.015472114086151123,-0.010157167911529541
2025-09-20T02:24:00Z,0.1170878061386788,0.15783192101276222,0.5078152342182859,-0.21561862528324127,-0.37901997566223145,-0.8999180197715759,0.06152439192599298,0.07622652536507707,0.2544421766992968,0.9621140277971515,0.04810568317770958,0.00020060082897543907,0.06174939125776291,-0.0018830150365829468,-0.018041372299194336,-0.009763658046722412
2025-09-20T02:24:00Z,0.11701404194347191,0.15896170116419836,0.5088514887473548,-0.21597349643707275,-0.3796742260456085,-0.8995570540428162,0.06203900861501837,0.07636187491635613,0.25495901629589063,0.961933383720437,0.04921332374215126,0.004215434659272432,0.047645457088947296,-0.0016568303108215332,-0.024121999740600586,-0.010080695152282715
2025-09-20T02:24:00Z,0.1169457395526741,0.160070092122552,0.509612951732497,-0.21625904738903046,-0.3803960084915161,-0.899183452129364,0.0625529843519085,0.07648915394562725,0.2553432534492765,0.9617880384213476,0.050189852714538574,0.0031169059220701456,0.03815452381968498,-0.0031045377254486084,-0.022224456071853638,-0.008259296417236328
2025-09-20T02:24:00Z,0.11694615079825454,0.1611630853883532,0.5102356187223636,-0.21645018458366394,-0.3811478018760681,-0.8988190293312073,0.06305596376975243,0.07664357264481116,0.2556624386307219,0.9616581493445352,0.04660022631287575,0.003781415754929185,0.036556072533130646,-0.0040723830461502075,-0.018571943044662476,-0.008662521839141846
2025-09-20T02:24:00Z,0.11694175522788847,0.16216603032200666,0.5108568986999912,-0.21664123237133026,-0.3818214237689972,-0.8984870314598083,0.06351610373889212,0.0767848249138116,0.25597906255156444,0.9615323772068856,0.043695226311683655,0.008150706999003887,0.03471462428569794,-0.0031609386205673218,-0.01779484748840332,-0.010025322437286377
2025-09-20T02:24:00Z,0.11706167269528081,0.1630895702489359,0.5114327626553404,-0.21670658886432648,-0.38244014978408813,-0.8982080817222595,0.06392369914623178,0.07697485400168898,0.2562763016398562,0.9614109419553011,0.04006276652216911,0.016808323562145233,0.030109699815511703,-0.0011572539806365967,-0.019534915685653687,-0.011376142501831055
2025-09-20T02:24:00Z,0.11737291029843569,0.16398684204096287,0.5118247795465819,-0.21655696630477905,-0.3830938935279846,-0.8979655504226685,0.06430107233097092,0.07724789343702655,0.25649079066173697,0.9613066955293945,0.03683822974562645,0.020020686089992523,0.01800558716058731,-0.0011766254901885986,-0.022975653409957886,-0.010335803031921387
2025-09-20T02:24:00Z,0.11784358444130663,0.16476376249904154,0.5119750475607481,-0.21620365977287292,-0.38371944427490234,-0.8977835774421692,0.06460924720028581,0.07757499167432381,0.2565921422850457,0.9612326112871336,0.032638128846883774,0.024639420211315155,0.004591844975948334,-0.0013040602207183838,-0.023792803287506104,-0.009095251560211182
2025-09-20T02:24:00Z,0.11826415678983576,0.16542151375995215,0.5119166984109077,-0.21584253013134003,-0.38430750370025635,-0.8976189494132996,0.06487448613068994,0.07785652242548856,0.2565895619396537,0.9611926873571397,0.030641701072454453,0.014352751895785332,-0.00010967673733830452,-0.0035720914602279663,-0.022201716899871826,-0.004013180732727051
2025-09-20T02:24:00Z,0.11841187863902919,0.1660542339398449,0.5118595106021792,-0.2157255858182907,-0.38487330079078674,-0.8974045515060425,0.06516262636969089,0.07800383713906307,0.2565783064778781,0.9611642236201134,0.032970279455184937,0.003583177924156189,0.0026501300744712353,-0.0028557181358337402,-0.02048701047897339,-0.003163456916809082
2025-09-20T02:24:00Z,0.11844470710084877,0.16677931909958613,0.5118335567765802,-0.2157232016324997,-0.38550907373428345,-0.8971322178840637,0.06550878729585613,0.07810833496152243,0.2565799733800909,0.9611317753118344,0.0327860489487648,-0.0026027271524071693,0.0034874980337917805,0.00023940205574035645,-0.020638376474380493,-0.006729483604431152
2025-09-20T02:24:00Z,0.11844151020436429,0.16727356248531508,0.5117520410462817,-0.2157299667596817,-0.38596245646476746,-0.8969356417655945,0.06575051477893852,0.07816516626807364,0.2565495883958287,0.9611187552512677,0.02094656229019165,-0.0010600878158584237,0.0006616569589823484,0.0016296207904815674,-0.019035249948501587,-0.007321953773498535
2025-09-20T02:24:00Z,0.11843836176121735,0.16776780877262557,0.5116705420062923,-0.21573671698570251,-0.3864157497882843,-0.8967388272285461,0.0659922374958921,0.07822199728455158,0.25651919769714515,0.9611056737511804,0.0091070756316185,0.0004825517535209656,-0.0021641841158270836,0.0030198246240615845,-0.017432212829589844,-0.00791466236114502
2025-09-20T02:24:00Z,0.11841560751423556,0.16790513553402356,0.5115815898595027,-0.21574309468269348,-0.386562705039978,-0.8966739773750305,0.06606479708298577,0.07822506674287198,0.25647813800402824,0.9611115111704359,-0.0020336229354143143,-0.004285549744963646,-0.002119227545335889,0.002059072256088257,-0.017069101333618164,-0.005066215991973877
2025-09-20T02:24:00Z,0.11820922315897063,0.16777039471115923,0.5115191885052075,-0.2159077525138855,-0.386465847492218,-0.8966760635375977,0.06602877994691418,0.07810719268532881,0.25643891834343857,0.961134049820981,-0.004512025509029627,-0.004646067041903734,-0.0039340052753686905,0.0028205066919326782,-0.018673300743103027,-0.007316172122955322
2025-09-20T02:24:00Z,0.11800277357554081,0.16763568757190733,0.5114567040160596,-0.21607241034507751,-0.386368989944458,-0.8966781497001648,0.06599278452812611,0.07798929923563228,0.2563996881535459,0.9611564731120723,-0.006990428082644939,-0.0050065843388438225,-0.005748783238232136,0.0035819709300994873,-0.020277470350265503,-0.009566128253936768
2025-09-20T02:24:00Z,0.11799249428270611,0.1674939865291726,0.5112859319736766,-0.2160361409187317,-0.38630032539367676,-0.8967164754867554,0.06593248320387643,0.07796123789783627,0.2563147427071353,0.961185566535256,-0.0063303206115961075,0.0009689405560493469,-0.009128870442509651,0.003586500883102417,-0.02203097939491272,-0.01189500093460083
2025-09-20T02:24:00Z,0.1180634483388939,0.16739785961626985,0.5110625654585588,-0.21591703593730927,-0.386287659406662,-0.8967506289482117,0.0658857812042552,0.0779761197783628,0.2562080130078781,0.9612160129523637,-0.0033736368641257286,8.097168756648898e-05,-0.009865361265838146,0.0010593384504318237,-0.020727545022964478,-0.009236454963684082
2025-09-20T02:24:00Z,0.11802729128620516,0.1673816681478614,0.5108400190654317,-0.21589778363704681,-0.38634389638900757,-0.8967310190200806,0.06589128507910684,0.07794941350654232,0.2560995717956336,0.9612467043684267,0.0010864040814340115,-0.006320973392575979,-0.008512360975146294,-0.0009237229824066162,-0.019330710172653198,-0.006696879863739014
2025-09-20T02:24:00Z,0.11786892839872608,0.16745525879810225,0.5106276832049238,-0.21599453687667847,-0.3864745497703552,-0.8966514468193054,0.0659552919120129,0.07787536832421049,0.25599360655386805,0.9612765658990888,0.002265032846480608,-0.010488621890544891,-0.009800378233194351,-0.0007663369178771973,-0.019146382808685303,-0.007286131381988525
2025-09-20T02:24:00Z,0.11766246677004404,0.16751970835778984,0.5104244650804991,-0.21613605320453644,-0.3865944445133209,-0.8965656757354736,0.06602067734805962,0.07777736491652171,0.25589025885599304,0.9613075670917597,0.0015072344103828073,-0.010656158439815044,-0.009113403037190437,-0.0002400428056716919,-0.019039899110794067,-0.009025394916534424
2025-09-20T02:24:00Z,0.11753134314411873,0.16755402605618364,0.5101166428964021,-0.21618464589118958,-0.3867212235927582,-0.8964992761611938,0.06606595193497683,0.07770839811646571,0.2557385766371103,0.9613504138377146,-0.001143077970482409,-0.009971055202186108,-0.016007578000426292,0.0009346604347229004,-0.021444857120513916,-0.010352909564971924
2025-09-20T02:24:00Z,0.11745241053156674,0.16744896240880638,0.5096371460770743,-0.21614070236682892,-0.3867814838886261,-0.896483838558197,0.0660440308365827,0.07764169605622034,0.25550362347248573,0.9614197266912194,-0.007649357430636883,-0.0066649713553488255,-0.030390210449695587,0.0007021576166152954,-0.022431284189224243,-0.010352849960327148
2025-09-20T02:24:00Z,0.11739443492678275,0.16714862505080166,0.5089168846486284,-0.2160138189792633,-0.38674870133399963,-0.8965286016464233,0.06593462220825995,0.0775531390925599,0.25515010316926473,0.9615283009000679,-0.01641400344669819,-0.013809246942400932,-0.037037499248981476,-0.0017977356910705566,-0.018846780061721802,-0.0061394572257995605
2025-09-20T02:24:00Z,0.11717019496728373,0.16668847351409077,0.5081834565608081,-0.21602556109428406,-0.3865816295146942,-0.8965978026390076,0.06576981037751714,0.07736469202577906,0.25478190429442266,0.9616523864362521,-0.01973181776702404,-0.021936602890491486,-0.036608677357435226,-0.0022014975547790527,-0.01697009801864624,-0.004485964775085449
2025-09-20T02:24:00Z,0.11678362952960586,0.16623406034554752,0.5074321265529101,-0.21617886424064636,-0.3864250183105469,-0.8966283798217773,0.06562896803848975,0.07709841989122082,0.25439984632935814,0.9617845352106686,-0.01584233157336712,-0.028155842795968056,-0.04380328953266144,-0.001001507043838501,-0.021273553371429443,-0.007101833820343018
2025-09-20T02:24:01Z,0.11640433514092065,0.16590384765307553,0.5065500025851053,-0.21630091965198517,-0.38641679286956787,-0.8966024518013,0.06555191536386881,0.07684666349988284,0.2539573346447645,0.9619267973692921,-0.011188862845301628,-0.024470990523695946,-0.04182453826069832,0.00075550377368927,-0.019246399402618408,-0.010249972343444824
2025-09-20T02:24:01Z,0.11621622270069931,0.1656391647582313,0.5058204107060936,-0.2162894755601883,-0.3864172101020813,-0.8966050148010254,0.06547616131590361,0.07669992881293407,0.2535955565469708,0.9620391333675549,-0.009824753738939762,-0.0019407141953706741,-0.03179474547505379,0.001552000641822815,-0.01621931791305542,-0.014440357685089111
2025-09-20T02:24:01Z,0.1164528098837303,0.16538145985219452,0.5053599906627769,-0.21595951914787292,-0.38633888959884644,-0.8967183232307434,0.06533956627076341,0.07676721748774404,0.2533772533651462,0.9621005447068217,-0.009874391369521618,0.015263527631759644,-0.01766473799943924,0.001373186707496643,-0.014550894498825073,-0.014360606670379639
2025-09-20T02:24:01Z,0.11712874909444149,0.16530371947804076,0.5050862000867015,-0.21528662741184235,-0.3863576650619507,-0.8968720436096191,0.06522699038824413,0.07707395952513256,0.2532662211821103,0.9621128935284596,-0.004127822816371918,0.02375360205769539,-0.013494938611984253,0.0011939704418182373,-0.015889793634414673,-0.013621866703033447
2025-09-20T02:24:01Z,0.11780464366491786,0.1652257599287766,0.5048124827245123,-0.2146136462688446,-0.38637617230415344,-0.8970252871513367,0.0651143904219321,0.07738068236543456,0.2531551671945027,0.9621251198457947,0.0016187452711164951,0.032243672758340836,-0.009325139224529266,0.0010146498680114746,-0.01722896099090576,-0.012883543968200684
2025-09-20T02:24:01Z,0.11855940264534812,0.16525075991330354,0.5047018135469628,-0.21391212940216064,-0.38643258810043335,-0.8971685767173767,0.06503520912940966,0.0777432118475314,0.2531269438403563,0.9621086673021141,0.0005925624864175916,0.03615979105234146,-0.0036558452993631363,0.0012034624814987183,-0.01508563756942749,-0.012024521827697754
2025-09-20T02:24:01Z,0.119261140496133,0.16518989982426574,0.504626916348102,-0.2132624089717865,-0.3864034414291382,-0.8973357677459717,0.06491996383703447,0.07807093790352394,0.2531125969894982,0.9620936737526642,-0.0037665730342268944,0.03133605793118477,-0.0033647664822638035,0.00013428926467895508,-0.0157758891582489,-0.008732736110687256
2025-09-20T02:24:01Z,0.11983489164769506,0.1651113067809936,0.5045188525211728,-0.2127189338207245,-0.38636934757232666,-0.8974794745445251,0.06481367948187902,0.07833386504328861,0.2530777690787014,0.9620886084900971,-0.005181306507438421,0.01820753514766693,-0.006597448606044054,-0.001133948564529419,-0.016892224550247192,-0.005101382732391357
2025-09-20T02:24:01Z,0.12007926781001059,0.16501979574064654,0.5043180590246241,-0.21244901418685913,-0.38635319471359253,-0.8975503444671631,0.06474649680055845,0.07843377689545375,0.252987381947179,0.9621087800161388,-0.0016866810619831085,0.0015821494162082672,-0.007731385063380003,-0.0021442770957946777,-0.01739591360092163,-0.0020334720611572266
2025-09-20T02:24:01Z,0.11997315932386475,0.1650195367292042,0.5041344461084369,-0.21250183880329132,-0.386410653591156,-0.8975130915641785,0.06476698940713413,0.078376754756713,0.2528956106416686,0.9621361821788916,0.0012677537743002176,-0.010562597773969173,-0.007850361987948418,-0.0015300065279006958,-0.01677563786506653,-0.003706216812133789
2025-09-20T02:24:01Z,0.11977381028443242,0.16507372916043037,0.5039208992510853,-0.2126339226961136,-0.38652464747428894,-0.8974327445030212,0.06482669213803222,0.07828052618665567,0.25278743062038583,0.9621684221590192,0.0023459396325051785,-0.009842075407505035,-0.012014655396342278,0.0016354620456695557,-0.019029617309570312,-0.00938647985458374
2025-09-20T02:24:01Z,0.11964645808766476,0.16510247217286242,0.5036065284221204,-0.21267688274383545,-0.3866482377052307,-0.8973693251609802,0.06486894566692934,0.07821255608327918,0.25263258776679337,0.962211797943955,0.0001788071822375059,-0.006656452547758818,-0.01538119651377201,0.0026086121797561646,-0.01794418692588806,-0.011467337608337402
2025-09-20T02:24:01Z,0.1195481264896643,0.1650410768471411,0.5032357401222174,-0.21267655491828918,-0.3867115080356598,-0.8973421454429626,0.06486624188331365,0.07814576001958623,0.2524498608314431,0.9622653764144367,-0.003217838704586029,-0.005766713060438633,-0.016748890280723572,0.002302005887031555,-0.016236454248428345,-0.011300504207611084
2025-09-20T02:24:01Z,0.11944789310686973,0.1649414088859173,0.5029604609531487,-0.21269820630550385,-0.38671162724494934,-0.8973369598388672,0.06484156486196453,0.07807650454526183,0.2523123093459639,0.9623087389154193,-0.0019257207168266177,-0.005368825513869524,-0.0106356805190444,0.002455800771713257,-0.014322876930236816,-0.011539757251739502
2025-09-20T02:24:01Z,0.11937023222246768,0.164912899016289,0.5027801737592589,-0.21272486448287964,-0.3867435157299042,-0.8973168730735779,0.0648446433806903,0.07802982988703966,0.25222251120167477,0.9623358736066322,-0.0002425129059702158,0.00012349477037787437,-0.005099223926663399,0.0028334856033325195,-0.01545754075050354,-0.01366966962814331
2025-09-20T02:24:01Z,0.11948714900256022,0.16491798733656055,0.5026930417429635,-0.2126000076532364,-0.38677525520324707,-0.8973327875137329,0.06483575549993158,0.07808388064021593,0.2521844738129391,0.9623420439411592,0.0007860928308218718,0.0063851200975477695,-0.0017604816239327192,0.002708330750465393,-0.016851693391799927,-0.01215660572052002
2025-09-20T02:24:01Z,0.11972985508211907,0.1649741230812121,0.5025845858577339,-0.2123597115278244,-0.38685786724090576,-0.8973540663719177,0.06483647202566319,0.07820395797528595,0.25214120153350594,0.9623435831093361,0.00538240373134613,0.008004154078662395,-0.0066433679312467575,0.0016749203205108643,-0.020246177911758423,-0.009771466255187988
2025-09-20T02:24:01Z,0.11984159127306587,0.16512833646977487,0.5024276901366918,-0.21223026514053345,-0.3870405852794647,-0.8973059058189392,0.06490291687048841,0.07827133313845655,0.25207220401495484,0.9623517262360773,0.009895654395222664,0.0008150609210133553,-0.005506791640073061,-0.0004472285509109497,-0.01917058229446411,-0.005884945392608643
2025-09-20T02:24:01Z,0.11980118978676176,0.16529155901031006,0.5021789771424343,-0.21221646666526794,-0.387259840965271,-0.8972145915031433,0.06499648072565724,0.0782636008172347,0.25195426021958645,0.9623769354571644,0.007210805080831051,0.0013577938079833984,-0.011157305911183357,0.0011817961931228638,-0.019731998443603516,-0.00872117280960083
2025-09-20T02:24:01Z,0.11976082160202939,0.16545480371209376,0.5019303218870282,-0.21220265328884125,-0.38747912645339966,-0.8971231579780579,0.06509004683769823,0.07825586386080294,0.2518363322500314,0.9624021439566279,0.004525955766439438,0.0019005266949534416,-0.01680782064795494,0.0028108060359954834,-0.020293444395065308,-0.011557519435882568
2025-09-20T02:24:01Z,0.11985158248506006,0.16554582497857434,0.5015887372329002,-0.2120462954044342,-0.38766494393348694,-0.8970798850059509,0.06513590346000545,0.07829943969478369,0.2516766119561169,0.962437275089635,0.0011503249406814575,0.0006495271809399128,-0.01650598645210266,0.0012540966272354126,-0.0179288387298584,-0.010006606578826904
2025-09-20T02:24:01Z,0.11988165095542194,0.16557556298463363,0.5012842078500739,-0.21195009350776672,-0.3877861499786377,-0.8970502018928528,0.06515839044579828,0.07830758632598019,0.2515315947062016,0.9624730188637476,0.001235756790265441,-0.004448323510587215,-0.011765813454985619,-6.0617923736572266e-05,-0.01579180359840393,-0.0065850019454956055
2025-09-20T02:24:01Z,0.11977256943283582,0.16562953616696577,0.5010847232138698,-0.212004154920578,-0.38789528608322144,-0.8969902396202087,0.06520595750904175,0.07825512815915567,0.2514330681111292,0.9624997108403804,0.003085779957473278,-0.007722173817455769,-0.00840943492949009,-0.00022633373737335205,-0.017267286777496338,-0.007630765438079834
2025-09-20T02:24:01Z,0.11967145423313062,0.16573871445658633,0.5009093929324621,-0.21205922961235046,-0.38804468512535095,-0.8969125747680664,0.0652782020453015,0.07821394536665087,0.2513474248646573,0.9625205363908691,0.004145684652030468,-0.0024638217873871326,-0.008514468558132648,0.0014587640762329102,-0.01920732855796814,-0.010517120361328125
2025-09-20T02:24:01Z,0.11968774690956224,0.165820809458124,0.5006542210055508,-0.21198922395706177,-0.388195663690567,-0.8968638181686401,0.06532574406461113,0.07822337231896768,0.2512266732430983,0.9625481017492095,0.003624365199357271,-0.000908500631339848,-0.009715243242681026,0.002282440662384033,-0.02051675319671631,-0.010403275489807129
2025-09-20T02:24:01Z,0.11966648568891733,0.16591978427783247,0.5003576292291797,-0.21194402873516083,-0.3883741497993469,-0.896797239780426,0.06538776964291028,0.07821540056886847,0.2510850760701843,0.9625814931618364,0.0023792514111846685,-0.006478744558990002,-0.014042002148926258,0.0005585700273513794,-0.019623607397079468,-0.008839309215545654
2025-09-20T02:24:01Z,0.11956173931294385,0.1658991484949103,0.5000499455643286,-0.21196556091308594,-0.3884526789188385,-0.8967581391334534,0.06540298546754424,0.07815243079735379,0.2509331703289259,0.9626252203644473,-0.0029739264864474535,-0.008104534819722176,-0.015598603524267673,0.0014060139656066895,-0.017804116010665894,-0.00854402780532837
2025-09-20T02:24:01Z,0.11947870452620309,0.1657634746141758,0.4996857972791604,-0.21194913983345032,-0.3884493112564087,-0.8967635035514832,0.06536215326317461,0.07808419149927812,0.25075265280540954,0.9626805866680339,-0.00857384130358696,-0.007457965053617954,-0.01641121320426464,0.002235695719718933,-0.01703089475631714,-0.009983181953430176
2025-09-20T02:24:01Z,0.11941058266738518,0.1655287504957854,0.49930309327587813,-0.21191035211086273,-0.3883659243583679,-0.8968087434768677,0.06527235541073818,0.07801061639582366,0.25056186102771943,0.962742235675741,-0.01195984985679388,-0.007019760087132454,-0.017078645527362823,0.002043202519416809,-0.017947286367416382,-0.009473323822021484
2025-09-20T02:24:01Z,0.1193565639016595,0.1652833648110531,0.49893168303950947,-0.21186107397079468,-0.3882698714733124,-0.8968619704246521,0.06517517566406257,0.07794293518275279,0.2503767254351435,0.9628025210581063,-0.01054028607904911,-0.007958414033055305,-0.019077593460679054,0.001175209879875183,-0.018247902393341064,-0.008650064468383789
2025-09-20T02:24:01Z,0.11929388820601167,0.1650555234210316,0.49854139069187614,-0.21181592345237732,-0.3881947994232178,-0.8969051241874695,0.06508825886790473,0.07787262507881425,0.2501825443317715,0.9628645725589565,-0.008024283684790134,-0.007093168329447508,-0.017554383724927902,0.00045089423656463623,-0.01787102222442627,-0.008850157260894775
2025-09-20T02:24:01Z,0.11921343928892111,0.16485674856432272,0.49811991674793715,-0.21178074181079865,-0.3881545960903168,-0.8969308733940125,0.06501877972116894,0.07779627311757345,0.24997330087991815,0.9629297998390012,-0.008714636787772179,-0.0063660042360424995,-0.01917879469692707,0.00022082030773162842,-0.01811748743057251,-0.009348630905151367
2025-09-20T02:24:01Z,0.11915396456065411,0.16462580537522217,0.4977329460455713,-0.21173325181007385,-0.38807570934295654,-0.8969762325286865,0.06492978242337437,0.07772730741561244,0.2497807415932802,0.9629913531917523,-0.012168273329734802,-0.006347743794322014,-0.021684112027287483,0.00012752413749694824,-0.018217384815216064,-0.009550690650939941
2025-09-20T02:24:01Z,0.11916231959072157,0.16419500802121895,0.49698156526226905,-0.2115306258201599,-0.38793766498565674,-0.8970836997032166,0.06474997007970498,0.07765525041217666,0.24941116231441213,0.9631050509363619,-0.017963457852602005,-0.006869691424071789,-0.036833424121141434,-0.00044739246368408203,-0.020554661750793457,-0.008999824523925781
