timestamp,attitude_roll,attitude_pitch,attitude_yaw,gravity_x,gravity_y,gravity_z,quaternion_x,quaternion_y,quaternion_z,quaternion_w,rotation_rate_x,rotation_rate_y,rotation_rate_z,user_acceleration_x,user_acceleration_y,user_acceleration_z
2025-09-20T02:20:24Z,0.06482323935998115,0.2252105920386676,0.11762385079024228,-0.1534651815891266,-0.4107411205768585,-0.8987436890602112,0.11022159569472134,0.03874630831712344,0.06201017582938596,0.9912136950161204,-0.12999559938907623,-0.03295797109603882,-0.3038768470287323,0.002093300223350525,-0.016995877027511597,-0.006439387798309326
2025-09-20T02:20:24Z,0.0656577655854582,0.22220861683170057,0.11156457692966407,-0.15142583847045898,-0.4093223214149475,-0.8997362852096558,0.10882505746839584,0.03874824452448472,0.05901336817531136,0.9915507916121574,-0.13394974172115326,-0.017535215243697166,-0.30477380752563477,0.008470669388771057,-0.017730116844177246,-0.014652132987976074
2025-09-20T02:20:24Z,0.0667097704004119,0.21903374870999553,0.10554587753852704,-0.14918476343154907,-0.4077323079109192,-0.9008319973945618,0.10733666711209294,0.03886486209024039,0.05604314797174502,0.9918807173682003,-0.14617805182933807,-0.01611444540321827,-0.2967522144317627,0.00819428265094757,-0.010755687952041626,-0.014962971210479736
2025-09-20T02:20:24Z,0.06761344694848141,0.2156138971168711,0.09992262032515785,-0.14714114367961884,-0.405834436416626,-0.9020243287086487,0.10572438193608974,0.038932571534818834,0.053254545096898524,0.9922047991088015,-0.16185308992862701,-0.012009939178824425,-0.2649422585964203,0.00719451904296875,0.003932356834411621,-0.013741791248321533
2025-09-20T02:20:24Z,0.06848458284264625,0.2119416106421788,0.09495661830720366,-0.1452452838420868,-0.40356937050819397,-0.903346836566925,0.10397573624861094,0.039022265756970514,0.05078368373994445,0.9925155598537513,-0.16720154881477356,-0.009739557281136513,-0.24212732911109924,0.006950929760932922,0.002010732889175415,-0.011757194995880127
2025-09-20T02:20:24Z,0.06912400935734468,0.20842017429238618,0.09046692084902475,-0.14365366101264954,-0.4013342559337616,-0.9045962691307068,0.10229908681997284,0.03903335777481703,0.04853668001479366,0.9928017399106494,-0.15440480411052704,-0.02549998089671135,-0.21777498722076416,0.002562493085861206,0.00010284781455993652,-0.004377186298370361
2025-09-20T02:20:24Z,0.06924866291233513,0.20533648137190846,0.08653545121442628,-0.14264966547489166,-0.39937058091163635,-0.9056236147880554,0.10084122578296925,0.038833284863455754,0.046545225711027996,0.9930540539581162,-0.1290888786315918,-0.04268912971019745,-0.17933091521263123,0.0012365281581878662,0.0011248290538787842,-3.522634506225586e-05
2025-09-20T02:20:24Z,0.06887809221434223,0.2028549990700353,0.08352406522047622,-0.142297625541687,-0.39775562286376953,-0.9063894748687744,0.09967526592481449,0.038450239996691206,0.044994053671779916,0.993258158493626,-0.09733350574970245,-0.048359207808971405,-0.13249891996383667,0.0033689290285110474,0.0017754435539245605,-0.0036097168922424316
2025-09-20T02:20:24Z,0.06883816021123924,0.20114659146502564,0.08108061063837398,-0.1417829692363739,-0.39671558141708374,-0.9069257378578186,0.09887427343300095,0.038277141692919306,0.04375280674512916,0.9934003272159591,-0.08002643287181854,-0.03133029863238335,-0.1315176784992218,0.006787046790122986,-0.007683753967285156,-0.009834349155426025
2025-09-20T02:20:24Z,0.06879401319806787,0.19943839177107342,0.07863794084375396,-0.1412712186574936,-0.39567357301712036,-0.9074606895446777,0.09807310281266633,0.038103970243811146,0.04251146358458362,0.9935403763242021,-0.06271935999393463,-0.014301389455795288,-0.13053642213344574,0.010208025574684143,-0.01714494824409485,-0.016060352325439453
2025-09-20T02:20:24Z,0.06880224733740316,0.1980268806629623,0.075985885188898,-0.14067530632019043,-0.3949369490146637,-0.9078740477561951,0.09742193135686299,0.0379537274132836,0.041172889861519076,0.9936665442274747,-0.05682805925607681,-0.033890239894390106,-0.13743656873703003,0.0018292516469955444,-0.01456594467163086,-0.008451521396636963
2025-09-20T02:20:24Z,0.06850680784930425,0.1968437949908492,0.07339590323675413,-0.14037290215492249,-0.39439088106155396,-0.9081581830978394,0.09688889384474624,0.037661151977545874,0.03985365829475148,0.9937835924666899,-0.04612196981906891,-0.05138944089412689,-0.11090785264968872,0.0003319382667541504,-0.0027405619621276855,-0.005270838737487793
2025-09-20T02:20:24Z,0.06780083723914186,0.19588721789529295,0.07145912949764013,-0.14058464765548706,-0.39391693472862244,-0.9083310961723328,0.09646357823936452,0.03720109725712801,0.03884260920380684,0.9938823013249996,-0.03499290719628334,-0.05664840713143349,-0.08837524801492691,0.0023436546325683594,-0.005104869604110718,-0.01049429178237915
2025-09-20T02:20:24Z,0.06728867147795983,0.19518944456442766,0.06982269813163497,-0.14068950712680817,-0.393614798784256,-0.9084458351135254,0.09615687103102655,0.036856665208924014,0.037994191497120015,0.9939576090158934,-0.0267951600253582,-0.03279894217848778,-0.07331007719039917,0.010181203484535217,-0.011822789907455444,-0.017360031604766846
2025-09-20T02:20:24Z,0.06707019297680605,0.19463035373792636,0.06821568699361402,-0.14053697884082794,-0.3934306502342224,-0.9085491895675659,0.09591258145535693,0.036662235437882204,0.03717662350216047,0.9940193558978156,-0.018758729100227356,-0.015576248988509178,-0.08865601569414139,0.013087853789329529,-0.02048581838607788,-0.017225563526153564
2025-09-20T02:20:24Z,0.06714500579911703,0.1941918956071237,0.06627136687542891,-0.14004988968372345,-0.39342057704925537,-0.9086288213729858,0.0957288451032292,0.036599647595774304,0.036207232399598485,0.9940751857585995,-0.010905979201197624,-0.01898331567645073,-0.09695257991552353,0.007190346717834473,-0.01664215326309204,-0.010884225368499756
2025-09-20T02:20:24Z,0.06708691002575308,0.1938682595394949,0.06443127527210835,-0.13970769941806793,-0.3934922218322754,-0.9086504578590393,0.0956026030396379,0.03647802104718512,0.03528494671785877,0.9941249697440798,-0.007616621442139149,-0.026365652680397034,-0.07224497199058533,0.0029760897159576416,-0.0063148438930511475,-0.0053879618644714355
2025-09-20T02:20:24Z,0.0667429901974487,0.19365492596759068,0.06324027145487054,-0.13976408541202545,-0.39353474974632263,-0.9086233377456665,0.09552420974824287,0.03624711964440235,0.03467327944228548,0.9941624527211245,-0.007011437322944403,-0.025715069845318794,-0.046085648238658905,0.0041377246379852295,-0.0028814077377319336,-0.011395633220672607
2025-09-20T02:20:24Z,0.06666345510921269,0.19341022827041152,0.062461184828574934,-0.13966591656208038,-0.39346808195114136,-0.9086673259735107,0.09541802161206457,0.036166962384025066,0.034278519716224906,0.9941892833085252,-0.016666892915964127,-0.0038423482328653336,-0.03354567289352417,0.010237246751785278,-0.006490826606750488,-0.017459332942962646
2025-09-20T02:20:24Z,0.06683054621714206,0.19290153099856897,0.06171757049376015,-0.13934403657913208,-0.39315736293792725,-0.9088512063026428,0.09517570382929587,0.03620755692174596,0.03390914657786071,0.994223679959573,-0.023517446592450142,0.007862767204642296,-0.03875403106212616,0.012287765741348267,-0.013123184442520142,-0.013938605785369873
2025-09-20T02:20:24Z,0.06714626181581658,0.19239193490731468,0.060807998952925886,-0.13885189592838287,-0.3928781747817993,-0.9090472459793091,0.0949334922788251,0.03631433153263959,0.0334642443593706,0.9942580580472997,-0.023001568391919136,-0.000880783423781395,-0.04028824716806412,0.005859538912773132,-0.011598140001296997,-0.0074928998947143555
2025-09-20T02:20:24Z,0.06708482153328761,0.1919624322008314,0.06006248565382961,-0.13873910903930664,-0.39263856410980225,-0.909168004989624,0.0947344746489404,0.036242673883750055,0.03308416214871241,0.9942923656364896,-0.016566766425967216,-0.0161365307867527,-0.030362727120518684,0.0023877471685409546,-0.007902145385742188,-0.0046433210372924805
2025-09-20T02:20:24Z,0.0668591279425994,0.1916516985993532,0.05962873137340552,-0.1388445496559143,-0.3924444019794464,-0.9092357158660889,0.09459153079018938,0.03610581397176255,0.03285310799257386,0.9943185910116367,-0.0070711178705096245,-0.013795365579426289,-0.01318380981683731,0.006617993116378784,-0.007218867540359497,-0.01213449239730835
2025-09-20T02:20:24Z,0.06672283649088724,0.1915761068016152,0.05945952485662656,-0.13893073797225952,-0.39240962266921997,-0.9092375636100769,0.09455923077171398,0.03602905570968294,0.03276139264174232,0.9943274585709269,-0.0008632233366370201,-0.0018944479525089264,0.0006480924785137177,0.008078604936599731,-0.007768511772155762,-0.016930103302001953
2025-09-20T02:20:24Z,0.06686506374236864,0.19159623952813057,0.05963818821820079,-0.1388396918773651,-0.3923927843570709,-0.9092587232589722,0.09456368433394342,0.036108478007176176,0.0328572467179506,0.9943210158684785,0.003217246849089861,0.011998716741800308,0.015138797461986542,0.008426472544670105,-0.007123708724975586,-0.017721354961395264
2025-09-20T02:20:24Z,0.06710903089318082,0.19176570655297606,0.06009054090596559,-0.13871783018112183,-0.39245641231536865,-0.9092499017715454,0.09463574704095021,0.03625341565718835,0.03309625700961407,0.9943009493995939,0.0022189717274159193,0.011704905889928341,0.032055072486400604,0.004878237843513489,-0.0056077539920806885,-0.011854171752929688
2025-09-20T02:20:24Z,0.06723196854917293,0.19180183527235634,0.06076775711486569,-0.13874991238117218,-0.392356276512146,-0.909288227558136,0.0946393731596262,0.03634706262074138,0.03343930042227344,0.9942857308535671,-6.863498128950596e-05,0.018885908648371696,0.03068448044359684,0.005274876952171326,-0.008336782455444336,-0.011531651020050049
2025-09-20T02:20:24Z,0.06744451433319225,0.1918441991001682,0.06139843085472609,-0.1386907696723938,-0.3922707438468933,-0.909334123134613,0.09464538216775036,0.03648314595506501,0.033763537376807845,0.9942692378687294,0.0016469148686155677,0.017905959859490395,0.024160193279385567,0.005231127142906189,-0.012563258409500122,-0.010206639766693115
2025-09-20T02:20:24Z,0.06755774091313797,0.19206141512563002,0.06168372205559898,-0.1386537104845047,-0.39240989089012146,-0.9092797636985779,0.09474626152170504,0.03655591450275256,0.03391405077159591,0.9942518541010833,0.009146951138973236,0.0075724804773926735,0.01762683503329754,0.003969565033912659,-0.012836724519729614,-0.00950855016708374
2025-09-20T02:20:24Z,0.06767092847413649,0.19227867897783843,0.061968994804452254,-0.1386166661977768,-0.3925490081310272,-0.909225344657898,0.09484714698219796,0.03662869211695118,0.034064562168543686,0.9942344098628144,0.016646988689899445,-0.0027609989047050476,0.011093475855886936,0.0027080178260803223,-0.013110160827636719,-0.00881052017211914
2025-09-20T02:20:24Z,0.06768156722068892,0.19267149205543577,0.06190827345626381,-0.13860458135604858,-0.39291349053382874,-0.9090697169303894,0.09504340085552662,0.0366365150040028,0.0340409134504398,0.9942160732062547,0.016992101445794106,-0.00184670090675354,-0.00879748072475195,0.007217183709144592,-0.01695266366004944,-0.01240682601928711
2025-09-20T02:20:24Z,0.06760591255927224,0.19300816730410203,0.061566967161838654,-0.13861040771007538,-0.39328259229660034,-0.9089092016220093,0.09521832358575602,0.036587289880385204,0.03387281000662786,0.9942069618969258,0.011563556268811226,-0.0028485176153481007,-0.025108858942985535,0.005691200494766235,-0.015409022569656372,-0.012958645820617676
2025-09-20T02:20:24Z,0.06769964428638987,0.19318579333724303,0.06094286331854424,-0.13839837908744812,-0.39356428384780884,-0.9088196158409119,0.09531647916800792,0.03660657173944849,0.03356975662184547,0.994207130236906,0.007875571958720684,-0.007620386313647032,-0.02945023588836193,0.0044107586145401,-0.010588973760604858,-0.009717822074890137
2025-09-20T02:20:24Z,0.06764303838684199,0.19325354752453092,0.06031370180741205,-0.13831891119480133,-0.3937482535839081,-0.9087520241737366,0.0953626185826214,0.03654935126558748,0.03325533940055456,0.9942153846816234,-0.0008180709555745125,-0.012351490557193756,-0.02370617911219597,0.003052547574043274,-0.008190542459487915,-0.010752737522125244
2025-09-20T02:20:24Z,0.0674273672564511,0.19312936154292887,0.05987591001000203,-0.13841919600963593,-0.3937224745750427,-0.9087479114532471,0.09531243184374401,0.03641961583869854,0.03302552115322242,0.9942326213837105,-0.006628826260566711,-0.010215256363153458,-0.023921208456158638,0.00609627366065979,-0.010587185621261597,-0.012008190155029297
2025-09-20T02:20:24Z,0.06741611197423984,0.19289655724187846,0.059373121257235616,-0.1383170783519745,-0.3936119079589844,-0.9088113307952881,0.09520601626431308,0.036387000234924305,0.032771469879012353,0.9942523943087268,-0.008570673875510693,-0.004526456817984581,-0.021538445726037025,0.006235048174858093,-0.011278480291366577,-0.012716948986053467
2025-09-20T02:20:25Z,0.06746498188074125,0.1927591487205755,0.05892564622958364,-0.13817448914051056,-0.393576055765152,-0.9088485836982727,0.09514503502101448,0.03638820176945542,0.03254923279481129,0.9942655034147845,-0.0016137249767780304,-0.007412837818264961,-0.012222515419125557,0.005019336938858032,-0.011350542306900024,-0.00878208875656128
2025-09-20T02:20:25Z,0.06729002364445445,0.19277461520854863,0.05869490623131646,-0.13828516006469727,-0.3936350345611572,-0.9088062047958374,0.0951597575015503,0.03629044634871917,0.03242643646993234,0.9942717051029138,0.0027029337361454964,-0.0066256653517484665,-0.012286163866519928,0.006067901849746704,-0.014871060848236084,-0.010663151741027832
2025-09-20T02:20:25Z,0.06725480358378583,0.19298665108939192,0.05851712089298101,-0.13828516006469727,-0.39386001229286194,-0.9087086915969849,0.0952689926585589,0.036267224552367076,0.032339628920716255,0.994264817240771,0.00795759353786707,-0.007720017805695534,-0.006337286438792944,0.004668831825256348,-0.013056516647338867,-0.008531033992767334
2025-09-20T02:20:25Z,0.0672742825962978,0.19323055966807828,0.05844817948744816,-0.13825935125350952,-0.3940923511981964,-0.9086118936538696,0.09539120337081562,0.03627677292532589,0.03231002013475597,0.9942537361436165,0.010375828482210636,0.002796158194541931,-0.0003390638157725334,0.005726426839828491,-0.013610512018203735,-0.010574877262115479
2025-09-20T02:20:25Z,0.06750027223034127,0.1934461466807692,0.058403415615676996,-0.13805028796195984,-0.39429453015327454,-0.9085559844970703,0.0954955579935819,0.036389762255398014,0.03230185979152581,0.9942398760253562,0.008506588637828827,0.016552096232771873,-0.0032366078812628984,0.007399111986160278,-0.015383750200271606,-0.012719333171844482
2025-09-20T02:20:25Z,0.06807665837832544,0.1935656865866478,0.058255629812430855,-0.13749854266643524,-0.39443060755729675,-0.9085805416107178,0.09554839500039534,0.03667077483950562,0.03225777026191787,0.9942258655353967,0.0031306231394410133,0.034294240176677704,-0.01168772205710411,0.009215906262397766,-0.016994118690490723,-0.015678763389587402
2025-09-20T02:20:25Z,0.06892597426235343,0.1935356499044345,0.057933283223697375,-0.13665784895420074,-0.3944665789604187,-0.9086917638778687,0.09552573427375274,0.03707719831612117,0.032137630840945695,0.9942168217720102,-0.003434428945183754,0.03960546851158142,-0.018610505387187004,0.00730326771736145,-0.01438051462173462,-0.014684021472930908
2025-09-20T02:20:25Z,0.06983218517502736,0.1933762170850688,0.057524467339471946,-0.13574351370334625,-0.394403338432312,-0.9088562726974487,0.09543956083173091,0.03750614363818172,0.03197514010142032,0.9942142530825037,-0.010045956820249557,0.03630360960960388,-0.020995980128645897,0.006135135889053345,-0.01172664761543274,-0.012774825096130371
2025-09-20T02:20:25Z,0.07064255461505187,0.1931369077988106,0.05709728243523066,-0.1349099576473236,-0.39427196979522705,-0.9090373516082764,0.09531570778066804,0.03788560831116348,0.031797579671229176,0.9942174305826892,-0.01187078282237053,0.0338616818189621,-0.023935912176966667,0.0067076534032821655,-0.011673301458358765,-0.011128246784210205
2025-09-20T02:20:25Z,0.07143201406913101,0.19290416590350803,0.056595942692494065,-0.134079709649086,-0.3941609263420105,-0.909208357334137,0.09519701338355675,0.038251283471015904,0.031582163203854235,0.9942217432421032,-0.009507628157734871,0.027232471853494644,-0.02520696446299553,0.005753442645072937,-0.01195797324180603,-0.008139073848724365
2025-09-20T02:20:25Z,0.07201583950572525,0.19269463609404575,0.056073916458906664,-0.13343249261379242,-0.3940746486186981,-0.9093409180641174,0.09509366337050622,0.03851410124033816,0.03134697661422015,0.9942289644174364,-0.007959995418787003,0.017393779009580612,-0.023631291463971138,0.0048009902238845825,-0.010651648044586182,-0.006051957607269287
2025-09-20T02:20:25Z,0.07233943977313505,0.19250066406136854,0.05560878291315911,-0.13303424417972565,-0.3939911723136902,-0.9094354510307312,0.09500113701546374,0.03865050690510848,0.03112790804979267,0.9942393938818056,-0.0076437341049313545,0.005919828079640865,-0.01796613819897175,0.0036423951387405396,-0.008812487125396729,-0.005580782890319824
2025-09-20T02:20:25Z,0.07246201913554053,0.19230762656270237,0.05526158103479281,-0.1328437477350235,-0.3938855528831482,-0.9095090627670288,0.09490996417137233,0.03869263331395019,0.03095790618199331,0.9942517890333427,-0.01019437238574028,0.0005156253464519978,-0.013064521364867687,0.0036503970623016357,-0.008907228708267212,-0.007759451866149902
2025-09-20T02:20:25Z,0.07248036334211888,0.19202742837302447,0.055075235628698274,-0.13277961313724518,-0.39367035031318665,-0.9096115827560425,0.09477396231798842,0.03868955840453021,0.030861457905733844,0.9942678967238804,-0.01648136042058468,0.0006529060774482787,-0.009949526749551296,0.005119636654853821,-0.009764045476913452,-0.010601639747619629
2025-09-20T02:20:25Z,0.07248854316466104,0.1916190505754516,0.05494829389487236,-0.13273364305496216,-0.393328458070755,-0.9097661972045898,0.09457323244503651,0.03868273813829677,0.03079191312712425,0.9942894272880329,-0.025306392461061478,2.9130256734788418e-05,-0.007252261973917484,0.004900053143501282,-0.010035693645477295,-0.012286782264709473
2025-09-20T02:20:25Z,0.07253593404034527,0.19106509093373986,0.054924996179648786,-0.13266979157924652,-0.3928355872631073,-0.9099884033203125,0.09429750225536616,0.038698591154920095,0.03077330538952308,0.9943155431021199,-0.030052952468395233,0.00019049856928177178,-0.0008805966936051846,0.005514562129974365,-0.009192079305648804,-0.013243257999420166
2025-09-20T02:20:25Z,0.07257927526860423,0.1904381746937006,0.05501429565540944,-0.13263142108917236,-0.39225515723228455,-0.910244345664978,0.09398336915207159,0.038716856334119594,0.030809249460468098,0.9943434320003031,-0.031178440898656845,0.005879529751837254,0.0012284507974982262,0.006742879748344421,-0.012495458126068115,-0.01348865032196045
2025-09-20T02:20:25Z,0.07268612494022003,0.18984857843146938,0.05504557258683583,-0.13252399861812592,-0.39171940088272095,-0.9104906916618347,0.0936879269021796,0.038764394488020076,0.030819931013038007,0.9943691275031205,-0.026582490652799606,0.006951376795768738,-0.005066538695245981,0.007062464952468872,-0.0171051025390625,-0.01078420877456665
2025-09-20T02:20:25Z,0.07284903999131984,0.18936392066898464,0.05478863042467641,-0.13230741024017334,-0.3913339376449585,-0.9106879234313965,0.09344939345880081,0.03882758903490465,0.030691661353751933,0.9943930661790986,-0.019713010638952255,0.005441918503493071,-0.02083958499133587,0.006702020764350891,-0.020326435565948486,-0.010010123252868652
2025-09-20T02:20:25Z,0.07299835886102699,0.18894423996502832,0.05424421682318971,-0.13204406201839447,-0.39106273651123047,-0.9108426570892334,0.09324898352914951,0.03887145385664345,0.030420874865212527,0.9944184633631936,-0.01558589842170477,0.0003696163184940815,-0.02985033020377159,0.005847305059432983,-0.01685956120491028,-0.008271217346191406
2025-09-20T02:20:25Z,0.07307967597537132,0.18857141972145952,0.05356961233842486,-0.1318162977695465,-0.39085885882377625,-0.9109631180763245,0.0930754579263683,0.03887610472909595,0.030082937971325312,0.9944448304869472,-0.015759024769067764,-0.004805701784789562,-0.03198262304067612,0.005140259861946106,-0.01254454255104065,-0.00858539342880249
2025-09-20T02:20:25Z,0.0730463463728306,0.18812305325052153,0.05293123074882567,-0.13169841468334198,-0.3905799090862274,-0.9110997915267944,0.09286537045181797,0.03882468669847759,0.029756376270346833,0.9944763525030756,-0.022057970985770226,-0.008043349720537663,-0.0304810032248497,0.004993647336959839,-0.009286999702453613,-0.010519981384277344
2025-09-20T02:20:25Z,0.0730246661822376,0.18755576651672964,0.052323852922933387,-0.13157305121421814,-0.3901878595352173,-0.9112858772277832,0.09259533823762749,0.038779289023560884,0.02944374544149639,0.9945126507631183,-0.029175840318202972,-0.0048286570236086845,-0.027940230444073677,0.005720704793930054,-0.008462846279144287,-0.012717604637145996
2025-09-20T02:20:25Z,0.07312245267443103,0.18692356145094863,0.05178818218459313,-0.13135212659835815,-0.3897233009338379,-0.911516547203064,0.09228986417955204,0.038796049398665565,0.02917117100482183,0.9945484240478895,-0.03234085440635681,0.0007423055358231068,-0.02206955850124359,0.006073206663131714,-0.007815241813659668,-0.011910200119018555
2025-09-20T02:20:25Z,0.07325468535085203,0.1862584207325862,0.051349684524421145,-0.13111938536167145,-0.3892100155353546,-0.9117693305015564,0.0919656390762603,0.038834213197088,0.028947895499094548,0.9945834077480765,-0.029515109956264496,0.0021592401899397373,-0.020150260999798775,0.005791500210762024,-0.00998145341873169,-0.011327147483825684
2025-09-20T02:20:25Z,0.07344630740874136,0.18564983065160653,0.05090613287355242,-0.1308329999446869,-0.3887484669685364,-0.9120073318481445,0.09166878834975395,0.03890243851865586,0.028725729122910187,0.9946146240687018,-0.026511475443840027,0.008055029436945915,-0.02537384070456028,0.006793484091758728,-0.0136280357837677,-0.012611985206604004
2025-09-20T02:20:25Z,0.07373564823930737,0.18507209397369564,0.050273476889491624,-0.13041797280311584,-0.3883512020111084,-0.9122359752655029,0.091389611441358,0.0390110921294236,0.02841443949495696,0.9946450002849118,-0.02503792941570282,0.0070891049690544605,-0.036957450211048126,0.006754159927368164,-0.016118764877319336,-0.011904239654541016
2025-09-20T02:20:25Z,0.07406406947457814,0.18450286844097769,0.04935813585003411,-0.12990716099739075,-0.3880161643028259,-0.912451446056366,0.09111971826415272,0.039126576440085784,0.027964383607991677,0.994678015114415,-0.026872582733631134,0.003987587988376617,-0.053138453513383865,0.005506947636604309,-0.016828149557113647,-0.010806798934936523
2025-09-20T02:20:25Z,0.07428200636483433,0.18384889917050415,0.04816327408175152,-0.12943483889102936,-0.38765862584114075,-0.9126704931259155,0.09081479047855247,0.03917380480026783,0.02736869685882733,0.9947205749638101,-0.027902893722057343,-0.005067069083452225,-0.06786711513996124,0.003776922821998596,-0.015967458486557007,-0.009478628635406494
2025-09-20T02:20:25Z,0.07435991386918026,0.1831379668577038,0.04663784903831233,-0.12901778519153595,-0.38731324672698975,-0.9128761291503906,0.09048994533669064,0.039136238251014636,0.02660114594711414,0.9947724997660433,-0.031235620379447937,-0.015104998834431171,-0.08269520103931427,0.003484487533569336,-0.01598098874092102,-0.009059429168701172
2025-09-20T02:20:25Z,0.07433205318349875,0.18234552799585352,0.044829338684335786,-0.12863391637802124,-0.38694843649864197,-0.9130850434303284,0.09013143020554455,0.039033044132033,0.025686498254324588,0.9948331393416197,-0.03729142248630524,-0.024584751576185226,-0.09880829602479935,0.0035572052001953125,-0.01597568392753601,-0.009547889232635498
2025-09-20T02:20:25Z,0.07419368619948706,0.18143124071247035,0.042650302140838606,-0.12826745212078094,-0.38654425740242004,-0.9133077263832092,0.08972073411278826,0.03885783111985033,0.024580359284458005,0.9949050773596362,-0.041067976504564285,-0.028843924403190613,-0.1211531013250351,0.004257462918758392,-0.01826930046081543,-0.009615004062652588
2025-09-20T02:20:25Z,0.07402467087485967,0.18036062875440168,0.03998675920491025,-0.12781952321529388,-0.3860909044742584,-0.9135622382164001,0.0892416879086106,0.038645367606146126,0.023229007938067356,0.994988895671673,-0.04455520212650299,-0.036325518041849136,-0.14682899415493011,0.003423646092414856,-0.02039012312889099,-0.008131444454193115
2025-09-20T02:20:25Z,0.07376396946509887,0.17919643562750187,0.036737894541417924,-0.12732523679733276,-0.38566336035728455,-0.9138118624687195,0.08872787682142226,0.03836193355247718,0.02158063130118996,0.995082891691301,-0.04767720773816109,-0.046757519245147705,-0.175568625330925,0.002170562744140625,-0.021699994802474976,-0.006555497646331787
2025-09-20T02:20:25Z,0.07336803908760646,0.1779465712348544,0.03293815443441465,-0.1268310397863388,-0.3852608799934387,-0.914050281047821,0.08818252455469752,0.03798809355647732,0.019650577707753563,0.9951856639323559,-0.05014416575431824,-0.06325885653495789,-0.20266252756118774,0.001460537314414978,-0.02161756157875061,-0.005068778991699219
2025-09-20T02:20:25Z,0.07277796497335864,0.17667909105896154,0.02854749164758747,-0.12638285756111145,-0.3849512040615082,-0.9142428040504456,0.0876400592219687,0.03749381894316763,0.01741756424932691,0.9952939127155547,-0.047517549246549606,-0.0763874351978302,-0.23423853516578674,0.002764858305454254,-0.024295568466186523,-0.005804240703582764
2025-09-20T02:20:25Z,0.07201180454523372,0.17543161665414267,0.023519567344380907,-0.12595364451408386,-0.384775310754776,-0.9143760800361633,0.08711884503534377,0.036886751994214664,0.014860048959295121,0.995403851975309,-0.04364222660660744,-0.08868969231843948,-0.2645118832588196,0.0027699992060661316,-0.023605823516845703,-0.006690382957458496
2025-09-20T02:20:25Z,0.07111356142384706,0.1742049489344529,0.017886491562792026,-0.12550833821296692,-0.3847258687019348,-0.9144580960273743,0.0866172006426021,0.03619059750502628,0.011995985607519057,0.9955118019954594,-0.042353104799985886,-0.09636446833610535,-0.29584044218063354,0.003633439540863037,-0.02297830581665039,-0.0079842209815979
2025-09-20T02:20:25Z,0.07019470139680932,0.17296150366700155,0.01161260920281443,-0.12493409216403961,-0.3847734034061432,-0.9145167469978333,0.08611536948180397,0.03545961762022313,0.008811801282045645,0.9956148978916821,-0.042809680104255676,-0.10402245074510574,-0.3271014392375946,0.004472993314266205,-0.0224035382270813,-0.008075892925262451
2025-09-20T02:20:25Z,0.06923455507953516,0.17165235717984356,0.004697572892567769,-0.12424609810113907,-0.38487112522125244,-0.9145693778991699,0.08558826869940724,0.03468409621342116,0.005305559183093217,0.995712502272045,-0.04383714497089386,-0.11494670063257217,-0.3537130355834961,0.002900265157222748,-0.02038714289665222,-0.007931947708129883
2025-09-20T02:20:25Z,0.06808240427638731,0.17024859456020364,-0.0025781037955687836,-0.12364166975021362,-0.38493862748146057,-0.9146228432655334,0.085015923695093,0.03380183343732892,0.0016100344403700258,0.9958046872710946,-0.04752492904663086,-0.12559983134269714,-0.36579808592796326,0.001903831958770752,-0.015394121408462524,-0.006723880767822266
2025-09-20T02:20:25Z,0.0667216910479136,0.1687713319563811,-0.009937381572459568,-0.123197540640831,-0.384942889213562,-0.9146810173988342,0.08440275831386738,0.03281700824608874,-0.002136953909518347,0.9958887919653956,-0.0517156645655632,-0.13383325934410095,-0.36154118180274963,0.0015104487538337708,-0.009698748588562012,-0.006459593772888184
2025-09-20T02:20:25Z,0.06525875143808897,0.16719911623312397,-0.017111307737062636,-0.12287668883800507,-0.3848155736923218,-0.9147776961326599,0.0837328578739943,0.03179443709061994,-0.005797089943795712,0.9959639223276977,-0.059373561292886734,-0.1337769627571106,-0.34969475865364075,0.0038702115416526794,-0.005758762359619141,-0.008604884147644043
2025-09-20T02:20:25Z,0.06437354255294331,0.1649224255581425,-0.023561488573641053,-0.12216560542583466,-0.3839096128940582,-0.9152534604072571,0.08269724618052875,0.031099811059982795,-0.00908384964211771,0.996047808523691,-0.07558343559503555,-0.11822406947612762,-0.34236568212509155,0.00419258326292038,-0.006671398878097534,-0.010235428810119629
2025-09-20T02:20:25Z,0.06347384236376347,0.16265144844813517,-0.030011286335077617,-0.12146135419607162,-0.3829982280731201,-0.9157289266586304,0.081660620543867,0.030404816465509278,-0.012370494490659559,0.9961194877281134,-0.09179331362247467,-0.10267117619514465,-0.33503660559654236,0.004521802067756653,-0.007589370012283325,-0.011866331100463867
2025-09-20T02:20:25Z,0.06255961942494133,0.16038618606974914,-0.03646076199233026,-0.12076395750045776,-0.3820813000202179,-0.9162040948867798,0.08062296739618985,0.029709432571227583,-0.01565698654080428,0.9961787174826107,-0.10800319164991379,-0.08711828291416168,-0.32770755887031555,0.00485789030790329,-0.008512943983078003,-0.013497531414031982
2025-09-20T02:20:25Z,0.06163097275947818,0.15812676309757773,-0.04290998245892409,-0.12007345259189606,-0.3811589777469635,-0.9166789054870605,0.0795843002889691,0.029013690300468423,-0.01894328109122875,0.9962256751546528,-0.1242130696773529,-0.07156539708375931,-0.32037848234176636,0.005200862884521484,-0.009441882371902466,-0.015129029750823975
2025-09-20T02:20:25Z,0.06108717645298274,0.15530331713390721,-0.04919123868345869,-0.11904951184988022,-0.3796846270561218,-0.9174240231513977,0.07826279495758157,0.02853071611481957,-0.022139302682985345,0.9962784578222905,-0.14098761975765228,-0.06262964755296707,-0.3112628757953644,0.004997968673706055,-0.006517380475997925,-0.01477891206741333
2025-09-20T02:20:25Z,0.060664604734905765,0.152074595897526,-0.05521304537277392,-0.11795951426029205,-0.3777860105037689,-0.9183481335639954,0.07673489180867266,0.028132626994751653,-0.025207665589189535,0.9963357081760775,-0.15356752276420593,-0.06268545985221863,-0.3008147180080414,0.004348941147327423,-0.0044615864753723145,-0.01244509220123291
2025-09-20T02:20:25Z,0.0602636526292669,0.1486331695056912,-0.06102499740440123,-0.11688870936632156,-0.3756466209888458,-0.9193620681762695,0.07509652734982532,0.027766006879156375,-0.028173892766448144,0.9963913720321121,-0.16100987792015076,-0.06592761725187302,-0.28874608874320984,0.004441492259502411,-0.004063457250595093,-0.009306132793426514
2025-09-20T02:20:26Z,0.05972687195509084,0.14508615083398185,-0.06661345315175018,-0.11598844081163406,-0.37336188554763794,-0.9204062223434448,0.07339867423392843,0.02735141715609624,-0.031035212128765637,0.9964443603842431,-0.1632259637117386,-0.06903284788131714,-0.28436756134033203,0.005783490836620331,-0.007046997547149658,-0.008284807205200195
2025-09-20T02:20:26Z,0.059089064512409195,0.1415114774334729,-0.07211197245936825,-0.11519800871610641,-0.37102577090263367,-0.921449601650238,0.07168213783832797,0.02689979271963205,-0.03385524306324572,0.9964898240988063,-0.16574904322624207,-0.07493646442890167,-0.27976343035697937,0.005406826734542847,-0.008267313241958618,-0.008117914199829102
2025-09-20T02:20:26Z,0.058352171488315,0.13787601821658063,-0.07749561689462002,-0.11452143639326096,-0.36860391497612,-0.922505259513855,0.0699298065617435,0.026413533851637888,-0.03662169887643495,0.9965294096064418,-0.16814327239990234,-0.0750102549791336,-0.2685990631580353,0.00432499498128891,-0.006729543209075928,-0.009457588195800781
2025-09-20T02:20:26Z,0.05755453989710547,0.13419379398094797,-0.08264367322176883,-0.11395324766635895,-0.36608952283859253,-0.9235762357711792,0.06814755272895046,0.02591549712872993,-0.039272557529087086,0.9965650049142809,-0.17209985852241516,-0.07718805223703384,-0.2589007318019867,0.003782033920288086,-0.007124781608581543,-0.010497868061065674
2025-09-20T02:20:26Z,0.05666960834963149,0.1303941720178927,-0.08760578272264781,-0.11350557953119278,-0.36342653632164,-0.9246824383735657,0.06630024189975194,0.02539196543886275,-0.04183429526396966,0.9965988408471587,-0.17762409150600433,-0.07386353611946106,-0.2547333836555481,0.004650697112083435,-0.00845387578010559,-0.013393104076385498
2025-09-20T02:20:26Z,0.055894217507034404,0.12650107382058282,-0.09252277887457223,-0.11296378076076508,-0.36066004633903503,-0.9258312582969666,0.06440575517785685,0.024935836566907045,-0.04437002631913063,0.996624924310829,-0.1850799322128296,-0.06881009042263031,-0.24957244098186493,0.005094163119792938,-0.00795680284500122,-0.014294862747192383
2025-09-20T02:20:26Z,0.05513010907681215,0.12249368037765937,-0.09732721480370084,-0.11243470758199692,-0.3577597439289093,-0.9270201921463013,0.06245107576076445,0.02450099718516281,-0.0468497455212103,0.9966466500007175,-0.18999354541301727,-0.0609922930598259,-0.24679434299468994,0.004925869405269623,-0.009592056274414062,-0.014460265636444092
2025-09-20T02:20:26Z,0.05451442486791062,0.11844230178406999,-0.10206283097850316,-0.11178220063447952,-0.3547973334789276,-0.9282368421554565,0.0604752991807131,0.02415270279027302,-0.04928997467539386,0.9966592996488447,-0.18972787261009216,-0.06309502571821213,-0.24563442170619965,0.004686027765274048,-0.010455101728439331,-0.012225210666656494
2025-09-20T02:20:26Z,0.05391773795779044,0.11441488678041804,-0.10680120207286542,-0.11111019551753998,-0.35184696316719055,-0.9294397234916687,0.058510404497145896,0.023822459738455672,-0.05172952333098067,0.9966609386835067,-0.1878175437450409,-0.05286620929837227,-0.24515169858932495,0.0076582059264183044,-0.01221853494644165,-0.014616787433624268
2025-09-20T02:20:26Z,0.05345739368794405,0.1104780514634202,-0.11148659896689103,-0.1103241890668869,-0.34896132349967957,-0.930620551109314,0.05659221952255253,0.023568355388145206,-0.05413633811756667,0.9966498955714952,-0.1845110058784485,-0.045022349804639816,-0.24017445743083954,0.0071429237723350525,-0.010578781366348267,-0.013870179653167725
2025-09-20T02:20:26Z,0.053195200041235124,0.1065403169911263,-0.11612401248059336,-0.10936331003904343,-0.3460572361946106,-0.9318175911903381,0.05467751433167468,0.023423307939449047,-0.05651294230380909,0.9966283134488887,-0.18362794816493988,-0.03534507751464844,-0.23641833662986755,0.006968200206756592,-0.010201305150985718,-0.013914763927459717
2025-09-20T02:20:26Z,0.053066468830854946,0.10266389694451833,-0.12064639686606249,-0.10830487310886383,-0.3431818187236786,-0.9330039024353027,0.05279535921279841,0.02335480192030492,-0.05882724980594907,0.9965974940224359,-0.18441325426101685,-0.036888811737298965,-0.23417703807353973,0.005560740828514099,-0.009298563003540039,-0.011505663394927979
2025-09-20T02:20:26Z,0.05292015421116023,0.09878812086902462,-0.12516751626097072,-0.10726067423820496,-0.34029722213745117,-0.9341803789138794,0.05091274865446458,0.023286078471967165,-0.06114103866395548,0.9965577539890741,-0.1851985603570938,-0.03843254968523979,-0.23193573951721191,0.004167549312114716,-0.008405059576034546,-0.009106338024139404
2025-09-20T02:20:26Z,0.05254661986026462,0.09486547623172957,-0.12966702574859418,-0.10643107444047928,-0.3373561501502991,-0.9353412389755249,0.0489990990789596,0.023114746464688942,-0.06344991593270208,0.9965133019395168,-0.18863748013973236,-0.046317208558321,-0.2319984883069992,0.003346256911754608,-0.005932539701461792,-0.01003497838973999
2025-09-20T02:20:26Z,0.05209590384027663,0.0908275997722458,-0.13407283880316062,-0.10569312423467636,-0.33428385853767395,-0.9365272521972656,0.04702371886413241,0.02291969374683293,-0.06571472204320314,0.9964661818603902,-0.19236744940280914,-0.0447656586766243,-0.22225886583328247,0.004011847078800201,-0.0014025866985321045,-0.012066483497619629
2025-09-20T02:20:26Z,0.051558495848578134,0.08678989774233922,-0.13825226961851303,-0.10509124398231506,-0.33116745948791504,-0.937701404094696,0.0450420772341299,0.0226952248727049,-0.0678676056490668,0.9964185506058901,-0.1914103478193283,-0.04703673720359802,-0.2131265103816986,0.004669368267059326,-0.0010588467121124268,-0.011302649974822998
2025-09-20T02:20:26Z,0.05092241553762901,0.08285026468747281,-0.14224876989695762,-0.1046283096075058,-0.32810544967651367,-0.9388288855552673,0.043102831828968034,0.022430247812388823,-0.0699288027296653,0.9963678871755461,-0.18431420624256134,-0.0462208092212677,-0.2037411332130432,0.006449520587921143,-0.0025389492511749268,-0.012926459312438965
2025-09-20T02:20:26Z,0.0503452022962544,0.07908244395205546,-0.14608754576028246,-0.10415171086788177,-0.3251713812351227,-0.939902126789093,0.041248455185751924,0.022199198274583887,-0.0719063513264203,0.9963108358034313,-0.17457737028598785,-0.04327351227402687,-0.1934656947851181,0.007592871785163879,-0.0036674439907073975,-0.013155460357666016
2025-09-20T02:20:26Z,0.0498510352567734,0.07551874809749969,-0.14975259531383098,-0.10364314913749695,-0.3223940432071686,-0.9409145712852478,0.03949600046123146,0.022012296839730064,-0.07379159595500066,0.9962481147443408,-0.1641629934310913,-0.034452781081199646,-0.18607069551944733,0.008902370929718018,-0.004613220691680908,-0.014221787452697754
2025-09-20T02:20:26Z,0.04949086492188009,0.07219751612788622,-0.153284385772891,-0.1030450090765953,-0.319816529750824,-0.9418593645095825,0.03786721368897223,0.021891665878292877,-0.07560349929493906,0.9961781822169526,-0.15100611746311188,-0.028039686381816864,-0.17929789423942566,0.008748278021812439,-0.004699796438217163,-0.012110292911529541
2025-09-20T02:20:26Z,0.04916591267476258,0.06910928558267987,-0.15666174970922028,-0.1024552509188652,-0.31742799282073975,-0.9427313804626465,0.03635371912434935,0.021787906994967392,-0.07733385607435035,0.9961040317693846,-0.13919687271118164,-0.02714696153998375,-0.17045652866363525,0.0068525224924087524,-0.004132986068725586,-0.010518312454223633
2025-09-20T02:20:26Z,0.04889671368828169,0.06629981722697781,-0.15990833426620252,-0.10184925049543381,-0.31527575850486755,-0.9435189366340637,0.03497947924375847,0.021708062886424784,-0.07899362556980925,0.9960247353282116,-0.1281367987394333,-0.02548499032855034,-0.16229446232318878,0.006872482597827911,-0.004698753356933594,-0.011170148849487305
2025-09-20T02:20:26Z,0.04854388412404913,0.06366427452253746,-0.16298486046468252,-0.10136684775352478,-0.3132568299770355,-0.9442430734634399,0.03368639020857231,0.0215867541141307,-0.08056719672713275,0.9959459094804357,-0.12111490964889526,-0.030049249529838562,-0.15326982736587524,0.006352633237838745,-0.0033566653728485107,-0.010788917541503906
2025-09-20T02:20:26Z,0.048158753628970555,0.0611364340644535,-0.16590378728720706,-0.10095568001270294,-0.3113115131855011,-0.9449301958084106,0.03244355095361628,0.021451395835501017,-0.08206073493202459,0.9958680435185133,-0.11849367618560791,-0.029067641124129295,-0.14615024626255035,0.007167644798755646,-0.004707396030426025,-0.013156116008758545
2025-09-20T02:20:26Z,0.047775728464008904,0.05867858606582279,-0.16874063257568708,-0.10056384652853012,-0.3094160854816437,-0.945594310760498,0.031234378536316516,0.02131901810683818,-0.08351176800401128,0.9957889209196996,-0.11392925679683685,-0.02585689164698124,-0.14513592422008514,0.00811893492937088,-0.007008343935012817,-0.013241469860076904
2025-09-20T02:20:26Z,0.04741224160253063,0.056350666472258865,-0.1715513686573322,-0.10016157478094101,-0.3076353073120117,-0.9462178349494934,0.0300900678895494,0.021194582104437296,-0.08494715755196489,0.995705423608749,-0.10787045210599899,-0.027377547696232796,-0.14429904520511627,0.006698913872241974,-0.007414519786834717,-0.012622594833374023
2025-09-20T02:20:26Z,0.04698853389284109,0.0541471822571017,-0.17418494038853552,-0.09986256808042526,-0.305942565202713,-0.9467980861663818,0.029002891520608243,0.021040501510855767,-0.0862930095651311,0.9956252691858458,-0.10620026290416718,-0.02983958274126053,-0.1352681964635849,0.005642600357532501,-0.004914075136184692,-0.012602686882019043
2025-09-20T02:20:26Z,0.04655906016404492,0.05194484997687297,-0.17681914864079543,-0.09956850856542587,-0.30424782633781433,-0.9473749995231628,0.02791564290012961,0.02088635304528915,-0.08763860670411955,0.9955420855660352,-0.10453007370233536,-0.03230161964893341,-0.12623736262321472,0.00459124892950058,-0.0024155378341674805,-0.012586116790771484
2025-09-20T02:20:26Z,0.04604408103855697,0.049686591647258964,-0.17925603910165638,-0.09940458089113235,-0.30246901512145996,-0.9479616284370422,0.02679431842838228,0.02069767546912288,-0.08888720300690052,0.9954660211318964,-0.11269174516201019,-0.03079155832529068,-0.11846839636564255,0.003839552402496338,-0.001494675874710083,-0.015519261360168457
2025-09-20T02:20:26Z,0.04564580225519085,0.047282599814830795,-0.18155561581788335,-0.09916294366121292,-0.3005302846431732,-0.9486033320426941,0.025603846896915392,0.020578204490649208,-0.09006701054684974,0.9953937559799817,-0.11901229619979858,-0.020990364253520966,-0.11657482385635376,0.005315467715263367,-0.002853214740753174,-0.017905831336975098
2025-09-20T02:20:26Z,0.04548171319220817,0.044792663571641314,-0.18375523854214548,-0.09872332960367203,-0.29849332571029663,-0.9492920637130737,0.02437997455421862,0.020583186407492276,-0.09119461084818827,0.9953217501836975,-0.12081471085548401,-0.007697727531194687,-0.11039993166923523,0.0076326727867126465,-0.0026526451110839844,-0.016377687454223633
2025-09-20T02:20:26Z,0.04548080441594199,0.04226940242134909,-0.18577527873964733,-0.09817387908697128,-0.2963964641094208,-0.9500057697296143,0.02314519899088668,0.020675685108240527,-0.09223097655192032,0.995253782013621,-0.12298304587602615,-0.00143520999699831,-0.09913239628076553,0.007890656590461731,-0.002223461866378784,-0.01307600736618042
2025-09-20T02:20:26Z,0.04567553096068359,0.039711035235070045,-0.1875868448262793,-0.09749098867177963,-0.2942343056201935,-0.9507479667663574,0.021900077280625953,0.020871946564253268,-0.09316169144394544,0.9951912504668294,-0.12481110543012619,0.00968319270759821,-0.0869896337389946,0.007432796061038971,-0.003107428550720215,-0.012243211269378662
2025-09-20T02:20:26Z,0.04590208871481874,0.03711427679522286,-0.189195945855769,-0.09682862460613251,-0.29200464487075806,-0.9515027403831482,0.020635565130247287,0.02109020115839202,-0.09399187140774706,0.99513561761772,-0.12798404693603516,0.008453557267785072,-0.08091450482606888,0.005322761833667755,-0.003756970167160034,-0.009605169296264648
2025-09-20T02:20:26Z,0.04617902017446324,0.034479105871881084,-0.1905956518056059,-0.09617100656032562,-0.2897067666053772,-0.952271580696106,0.0193524355402163,0.021339398533526437,-0.09471795697847415,0.9950872372621787,-0.13367849588394165,0.010987297631800175,-0.06641775369644165,0.00652671605348587,-0.0009539127349853516,-0.011863946914672852
2025-09-20T02:20:26Z,0.046415230414148224,0.03170899399123831,-0.19161952383609873,-0.09564640372991562,-0.28722602128982544,-0.9530755281448364,0.017996510566371714,0.02157998142452758,-0.09525925577774033,0.9950558575667867,-0.13843148946762085,0.009964639320969582,-0.046079445630311966,0.005456596612930298,0.0020498335361480713,-0.012477993965148926
2025-09-20T02:20:26Z,0.04658996056285637,0.028887994565236923,-0.1922280867000985,-0.09528612345457077,-0.28463664650917053,-0.9538881182670593,0.01660802610125848,0.021797239202535065,-0.0955952090664461,0.9950429958360861,-0.14098422229290009,0.0031879046000540257,-0.02355463057756424,0.004824541509151459,0.0029497742652893066,-0.012389957904815674
2025-09-20T02:20:26Z,0.046745484122048944,0.026051998004235202,-0.19243102602847964,-0.09504814445972443,-0.28197410702705383,-0.9547022581100464,0.015206801650272807,0.02200955524467603,-0.09572973612713455,0.9950477979556451,-0.13943080604076385,0.01589280180633068,-0.014425605535507202,0.008471310138702393,-0.0033137500286102295,-0.017035067081451416
2025-09-20T02:20:26Z,0.04727588782019625,0.023359644054328874,-0.19259751132750239,-0.0944632962346077,-0.27944067120552063,-0.9555048942565918,0.013894617364179374,0.022401955062484883,-0.09584179614285128,0.9950474400894452,-0.12843696773052216,0.03063981980085373,-0.016255341470241547,0.007748700678348541,-0.011055320501327515,-0.016101300716400146
2025-09-20T02:20:26Z,0.047933557550033506,0.020953675015978668,-0.19286434355434137,-0.0937342718243599,-0.27719148993492126,-0.9562315344810486,0.012732217638046214,0.02284340610309041,-0.0959999510316916,0.9950377144298049,-0.10913170129060745,0.031393926590681076,-0.025053922086954117,0.003997884690761566,-0.01577615737915039,-0.010989129543304443
2025-09-20T02:20:26Z,0.04849736829478143,0.01894404543492828,-0.19334474269444948,-0.09304483979940414,-0.27534744143486023,-0.9568314552307129,0.011765078049135742,0.023218041316946353,-0.09626057619657741,0.995015771741878,-0.09034522622823715,0.02403649128973484,-0.03233322128653526,0.0011957883834838867,-0.015301644802093506,-0.007471680641174316
2025-09-20T02:20:26Z,0.04890235357441054,0.01738929857510798,-0.19404103850936516,-0.09245758503675461,-0.27396517992019653,-0.9572850465774536,0.011019284712867705,0.02349086883543798,-0.09662419516552398,0.9949826764918663,-0.0811409279704094,0.022185539826750755,-0.03779064118862152,0.002401687204837799,-0.01397058367729187,-0.00985109806060791
2025-09-20T02:20:26Z,0.04930624907290256,0.015834288373199352,-0.1947366611112971,-0.0918712392449379,-0.2725817859172821,-0.9577363133430481,0.010273491364805053,0.0237636786744164,-0.0969877243502363,0.9949488550051039,-0.07193663716316223,0.02033458836376667,-0.04324805736541748,0.003608494997024536,-0.012640655040740967,-0.012232959270477295
2025-09-20T02:20:26Z,0.0496722885736554,0.014436801337657925,-0.19557645957192954,-0.09128586202859879,-0.2713676393032074,-0.9581369757652283,0.009606138078569769,0.024009778463424634,-0.09742139781237806,0.9949072174149057,-0.06812325865030289,0.016644606366753578,-0.0506492480635643,0.00446677953004837,-0.010998249053955078,-0.011868834495544434
2025-09-20T02:20:26Z,0.04997905666431373,0.013071424620397263,-0.19672026598690406,-0.09067921340465546,-0.27022549510002136,-0.95851731300354,0.008955748733821654,0.02422400976864613,-0.09800633066281013,0.9948506563021939,-0.0645669549703598,0.00837036594748497,-0.06750151515007019,0.0046091824769973755,-0.011879950761795044,-0.011809825897216797
2025-09-20T02:20:26Z,0.05002775484869204,0.011835014496193045,-0.1983740777393301,-0.09019007533788681,-0.26927587389945984,-0.9588306546211243,0.008363230408487812,0.024302110581677503,-0.09884449329540036,0.994770980513341,-0.06014970690011978,0.006346199661493301,-0.0716860294342041,0.005671925842761993,-0.010072886943817139,-0.012056231498718262
2025-09-20T02:20:26Z,0.050074415168163064,0.010598561306171279,-0.20002783712357372,-0.0897025316953659,-0.2683250606060028,-0.9591429233551025,0.007770722021398572,0.02438018799624363,-0.09968256771371184,0.9946902182629329,-0.05573245510458946,0.004322033375501633,-0.07587054371833801,0.006736263632774353,-0.008267015218734741,-0.012303769588470459
2025-09-20T02:20:26Z,0.05011903541104126,0.00936203036325981,-0.20168152113367105,-0.08921661972999573,-0.26737305521965027,-0.9594540596008301,0.007178204119668271,0.02445824153207895,-0.10052053423722491,0.9946084268776261,-0.05131520330905914,0.0022978666238486767,-0.08005505055189133,0.007802233099937439,-0.006462305784225464,-0.012552380561828613
2025-09-20T02:20:26Z,0.05016159358362124,0.008125378720782797,-0.2033351224753208,-0.08873233199119568,-0.26641979813575745,-0.9597640633583069,0.006585653800239401,0.02453626394654844,-0.10135839257318245,0.9945255441979458,-0.04689795523881912,0.000273699639365077,-0.08423956483602524,0.008869826793670654,-0.004658877849578857,-0.0128021240234375
2025-09-20T02:20:26Z,0.050171835270548006,0.00710452929261637,-0.2049958380639627,-0.08827976137399673,-0.26567238569259644,-0.9600129723548889,0.0060989714308355095,0.024588137385028724,-0.10219707198777714,0.9944415182975161,-0.040869396179914474,-0.0004748670617118478,-0.08385875076055527,0.00930294394493103,-0.0023252665996551514,-0.012042105197906494
2025-09-20T02:20:27Z,0.05017050187938751,0.006251020200264769,-0.2066870587644384,-0.08783227205276489,-0.26508787274360657,-0.9602155685424805,0.005695354713729068,0.024626354306970164,-0.10304874633103961,0.9943550433375564,-0.035019293427467346,0.0005162737797945738,-0.08602393418550491,0.009498454630374908,-0.0029304325580596924,-0.01259070634841919
2025-09-20T02:20:27Z,0.050178750402782156,0.005519138635989231,-0.20839683874187712,-0.08737203478813171,-0.2646211087703705,-0.9603862762451172,0.00535299646650584,0.024663652351565802,-0.10390798781927033,0.9942666373160899,-0.02797970175743103,-0.003930855542421341,-0.08474390208721161,0.008549489080905914,-0.0015401244163513184,-0.010574400424957275
2025-09-20T02:20:27Z,0.05002931968146813,0.004943716869061149,-0.2100845742180852,-0.08707063645124435,-0.26429983973503113,-0.9605020880699158,0.00507994880629325,0.024615021783996473,-0.10475461900075073,0.9941804114486359,-0.019741958007216454,-0.009024394676089287,-0.0834735631942749,0.009537942707538605,-0.001513451337814331,-0.010587692260742188
2025-09-20T02:20:27Z,0.04988802327873757,0.004538775274180701,-0.2117372947775992,-0.08677240461111069,-0.26413586735725403,-0.960574209690094,0.004891556520627729,0.024561985211672105,-0.10558156768528058,0.9940951778758609,-0.009218820370733738,-0.012367932125926018,-0.0790773406624794,0.010489903390407562,-0.0015883445739746094,-0.010427415370941162
2025-09-20T02:20:27Z,0.049660430012932084,0.004339095169858929,-0.21329211455040123,-0.08658485859632492,-0.2641540765762329,-0.9605861306190491,0.004799305251790452,0.02445568836932349,-0.10635739831144156,0.9940155742508697,-0.001958112698048353,-0.015084382146596909,-0.07553351670503616,0.01064462959766388,-0.0019146502017974854,-0.011714279651641846
2025-09-20T02:20:27Z,0.0493625388115032,0.004277984340452792,-0.21478560106912487,-0.08648225665092468,-0.2642957866191864,-0.9605563879013062,0.00477124421993745,0.024307331134455126,-0.10710111773349969,0.9939394759333613,0.0032840133644640446,-0.010965951718389988,-0.07073522359132767,0.011540763080120087,-0.0012063086032867432,-0.014527201652526855
2025-09-20T02:20:27Z,0.04910942998443417,0.004376365122310182,-0.2161154121496225,-0.0863809585571289,-0.26456740498542786,-0.9604907035827637,0.00482265597683009,0.02417306910396562,-0.1077613646057123,0.9938711184571273,0.007566011976450682,-0.012627489864826202,-0.06541353464126587,0.01090586930513382,-0.0014999210834503174,-0.01392298936843872
2025-09-20T02:20:27Z,0.04885647994964095,0.0044750734785939245,-0.21744516116955256,-0.08627928048372269,-0.2648388743400574,-0.9604250192642212,0.004874061836861748,0.02403880964966905,-0.10842153996178802,0.9938023345291529,0.011848010122776031,-0.014289027079939842,-0.06009184196591377,0.010270603001117706,-0.0017936527729034424,-0.013318777084350586
2025-09-20T02:20:27Z,0.04855118671976827,0.0047300611586218975,-0.2186269289410884,-0.08626814186573029,-0.2652394771575928,-0.960315465927124,0.004998319738935588,0.023870322561723615,-0.1090063802695133,0.9937417928578248,0.01691054366528988,-0.01812656968832016,-0.05437632277607918,0.00941474735736847,-0.002748429775238037,-0.0115586519241333
2025-09-20T02:20:27Z,0.048122224480715736,0.005052116754609879,-0.2196942430273073,-0.08640620112419128,-0.26568859815597534,-0.9601789116859436,0.005147573247924111,0.023636867498708077,-0.10953385935748385,0.9936886189687612,0.019425097852945328,-0.026796340942382812,-0.04516829922795296,0.007536903023719788,-0.0017850399017333984,-0.009145498275756836
2025-09-20T02:20:27Z,0.04763417024329983,0.005404304359638673,-0.22064944258452796,-0.08663034439086914,-0.2661513090133667,-0.9600305557250977,0.0053069884338329985,0.023372538456437785,-0.1100054714479879,0.9936419127378393,0.02026386745274067,-0.024246737360954285,-0.04565580189228058,0.010314971208572388,-0.004077941179275513,-0.013118863105773926
2025-09-20T02:20:27Z,0.04723188572648793,0.005763839419803835,-0.2216772812996636,-0.08675307035446167,-0.2666303813457489,-0.9598865509033203,0.005475382544904825,0.02315006532682368,-0.1105129038012198,0.9935898817391747,0.019448138773441315,-0.01773526519536972,-0.05127616226673126,0.009877972304821014,-0.006474018096923828,-0.014385759830474854
2025-09-20T02:20:27Z,0.04696664156180526,0.006123544810932118,-0.22278834385500587,-0.08672232180833817,-0.26712024211883545,-0.9597530961036682,0.005652199328164308,0.02299525641559415,-0.11106132974775587,0.9935313140799711,0.0201173834502697,-0.0176919586956501,-0.054154783487319946,0.008536510169506073,-0.006586551666259766,-0.01266181468963623
2025-09-20T02:20:27Z,0.04659005196120701,0.006513588421500495,-0.22387441103298414,-0.08680512011051178,-0.26763540506362915,-0.9596020579338074,0.005837418023357164,0.0227833252677397,-0.11159731749461302,0.9934750504138475,0.022651320323348045,-0.02334165945649147,-0.04954288899898529,0.006683424115180969,-0.0036396384239196777,-0.010160684585571289
2025-09-20T02:20:27Z,0.046104869637652125,0.007001366041322314,-0.22482077825919533,-0.08702956885099411,-0.26822522282600403,-0.9594170451164246,0.006063292788189624,0.022512194642042807,-0.11206313610676379,0.9934274598493086,0.0243214163929224,-0.02848966047167778,-0.04320838302373886,0.006486378610134125,-0.002823561429977417,-0.011146366596221924
2025-09-20T02:20:27Z,0.04557104124598005,0.007449986996886691,-0.2256819300559056,-0.08732224255800247,-0.26876622438430786,-0.9592390656471252,0.0062657813765448645,0.0222191628628074,-0.11248730995816035,0.9933849470357763,0.02311246655881405,-0.026139669120311737,-0.04029614105820656,0.008926458656787872,-0.0035215020179748535,-0.014245092868804932
2025-09-20T02:20:27Z,0.04517691032226106,0.007855011473118654,-0.22650192411648154,-0.08749087899923325,-0.2692599594593048,-0.95908522605896,0.006453803201426442,0.021997942033566708,-0.1128911889456769,0.9933428365393632,0.019963569939136505,-0.016506582498550415,-0.03806614503264427,0.008929558098316193,-0.004143744707107544,-0.014497876167297363
2025-09-20T02:20:27Z,0.04483878579794767,0.00824259199103495,-0.22730523692767168,-0.08760976791381836,-0.2697346806526184,-0.9589409232139587,0.006635973554296281,0.021805430179765307,-0.1132868519943844,0.9933008044957412,0.020389432087540627,-0.02140188030898571,-0.03506248816847801,0.006042733788490295,-0.004196584224700928,-0.01114511489868164
2025-09-20T02:20:27Z,0.044320406785689645,0.008708549328636716,-0.22802111237342382,-0.08792515099048615,-0.27027255296707153,-0.9587606191635132,0.006845727672838932,0.0215190905514267,-0.11363886115397051,0.993265419782152,0.027647338807582855,-0.029523678123950958,-0.031777385622262955,0.006129659712314606,-0.005202293395996094,-0.010307788848876953
2025-09-20T02:20:27Z,0.04378719556330452,0.009342320848018334,-0.22863182017377048,-0.08828405290842056,-0.2709566056728363,-0.9585345387458801,0.007136655545672087,0.021216028995548857,-0.11393691997891804,0.9932357569838903,0.033982571214437485,-0.03025837428867817,-0.02413288876414299,0.006951563060283661,-0.004334926605224609,-0.011887848377227783
2025-09-20T02:20:27Z,0.04319196523546112,0.010126823387164518,-0.22913515712725244,-0.08873201906681061,-0.2717702090740204,-0.9582628011703491,0.007497590420192822,0.02087376705676948,-0.11418037145552458,0.9932123800587809,0.04135514795780182,-0.03311149403452873,-0.01789068430662155,0.0074744075536727905,-0.004916399717330933,-0.011598587036132812
2025-09-20T02:20:27Z,0.042663961496346846,0.01105614199291469,-0.22947854150878896,-0.08915884792804718,-0.27270084619522095,-0.9579587578773499,0.007932471924945141,0.020557037423569426,-0.114342748243828,0.9931969003871182,0.04287891834974289,-0.026890603825449944,-0.01686651073396206,0.008608311414718628,-0.005153775215148926,-0.012308716773986816
2025-09-20T02:20:27Z,0.04213624195424809,0.011985631942710802,-0.22982147445005124,-0.08958525210618973,-0.27363133430480957,-0.9576535820960999,0.00836734459256316,0.020240286868951077,-0.11450510528623138,0.9931811192951095,0.04440268874168396,-0.020669713616371155,-0.015842337161302567,0.009741798043251038,-0.005391359329223633,-0.013019979000091553
2025-09-20T02:20:27Z,0.04174791979376275,0.012860100665976,-0.2301724569449702,-0.08987521380186081,-0.2745102047920227,-0.9573748707771301,0.008782862044474194,0.019995730791124666,-0.11467163967241857,0.9931633094751174,0.04239850491285324,-0.01870143972337246,-0.015373451635241508,0.00916939228773117,-0.0028342902660369873,-0.012692928314208984
2025-09-20T02:20:27Z,0.04134447557508955,0.013660617317708906,-0.23049265368453287,-0.09018666297197342,-0.2753143310546875,-0.9571146368980408,0.009160402782744525,0.019747915307166675,-0.11482389165533252,0.9931472368041284,0.036217331886291504,-0.025982381775975227,-0.009957943111658096,0.008418358862400055,0.001146763563156128,-0.011357307434082031
2025-09-20T02:20:27Z,0.04074210837958017,0.014329079840077988,-0.23070501828498194,-0.09071502834558487,-0.27597853541374207,-0.95687335729599,0.00945981246126265,0.01940931888075065,-0.1149250724051379,0.9931393635081286,0.03319285437464714,-0.03134939819574356,-0.007178779225796461,0.00870099663734436,0.000970304012298584,-0.011564970016479492
2025-09-20T02:20:27Z,0.040043805947404955,0.015055016515029024,-0.2308590732914074,-0.09135090559720993,-0.2766898572444916,-0.9566074013710022,0.009781617159592096,0.019019986423805032,-0.11499732937211048,0.9931355306212045,0.040952444076538086,-0.04008614271879196,-0.0016772462986409664,0.007699981331825256,-0.0002796053886413574,-0.010686218738555908
2025-09-20T02:20:27Z,0.0391334880932718,0.016000269603009973,-0.2309188866483653,-0.09221624583005905,-0.2775975167751312,-0.9562613368034363,0.01019919728160921,0.018513152162385218,-0.11502186642573967,0.9931380373131948,0.053967829793691635,-0.050112951546907425,0.0016731959767639637,0.006757766008377075,-0.0020442306995391846,-0.009204983711242676
2025-09-20T02:20:27Z,0.037990143994848964,0.017195530943908365,-0.2309137249973398,-0.09332349896430969,-0.2787344455718994,-0.9558231234550476,0.010726908105236245,0.01787650006147245,-0.11501326973849299,0.9931451253582103,0.06474526226520538,-0.0609624944627285,0.005511133000254631,0.00657615065574646,-0.0023027658462524414,-0.009009897708892822
2025-09-20T02:20:27Z,0.036728346826871566,0.018600096394300897,-0.2307984685231627,-0.09457410126924515,-0.28005582094192505,-0.9553138017654419,0.011350802821862412,0.01716957544441583,-0.11494924508272707,0.9931580939898779,0.07258665561676025,-0.06676069647073746,0.010769858956336975,0.00655703991651535,-0.0014452934265136719,-0.010680317878723145
2025-09-20T02:20:27Z,0.03532940347055199,0.020142665065317755,-0.23058830552262966,-0.09598082304000854,-0.2814955413341522,-0.9547501802444458,0.012034657611622474,0.016387228292051654,-0.11483839629784441,0.9931761179956956,0.07815291732549667,-0.07042120397090912,0.01623101532459259,0.007938407361507416,-0.0012810826301574707,-0.011788904666900635
2025-09-20T02:20:27Z,0.03390640108060837,0.021765500024142563,-0.23032273474545362,-0.09742444008588791,-0.28300368785858154,-0.9541579484939575,0.012756731277366649,0.015588803417173273,-0.11470041064155218,0.9931958783247092,0.0820387676358223,-0.07006029784679413,0.01354620885103941,0.008684791624546051,-0.0041328370571136475,-0.014429152011871338
2025-09-20T02:20:27Z,0.03244916855200526,0.023388774662059957,-0.23011798273211098,-0.09888336062431335,-0.28451934456825256,-0.9535569548606873,0.013477729493636527,0.0147731281936433,-0.11459386115696342,0.9932111311099042,0.08342557400465012,-0.07244078814983368,0.011548141948878765,0.008384890854358673,-0.0034611523151397705,-0.014698505401611328
2025-09-20T02:20:27Z,0.031025519016394363,0.025094258601334952,-0.22992403310489692,-0.10030671954154968,-0.2861137390136719,-0.9529309868812561,0.014241720944912054,0.01396947327288974,-0.11449277746554738,0.9932238052374095,0.08486286550760269,-0.07462922483682632,0.015520581975579262,0.007296577095985413,-0.0009151697158813477,-0.014615476131439209
2025-09-20T02:20:27Z,0.02958521001038866,0.026836894755116438,-0.22952814334015428,-0.10179758071899414,-0.287716269493103,-0.9522901773452759,0.015022042412768418,0.013157075219439596,-0.11429231057359161,0.9932463808528689,0.08945869654417038,-0.07226116210222244,0.02641427516937256,0.008280560374259949,-0.00011265277862548828,-0.015051841735839844
2025-09-20T02:20:27Z,0.02803062027929712,0.028677376313193736,-0.22902380203385925,-0.10342484712600708,-0.28939658403396606,-0.9516054391860962,0.015844091596128415,0.012283485767219842,-0.11403921192117025,0.9932738549006751,0.0924571081995964,-0.0690106451511383,0.03187975659966469,0.008923262357711792,-0.0011788904666900635,-0.014708280563354492
2025-09-20T02:20:27Z,0.026705197944408187,0.030581708575365154,-0.22839888196831462,-0.10486442595720291,-0.291120707988739,-0.9509217739105225,0.01671063440505854,0.011521489593658731,-0.11372508421301004,0.9933047981522859,0.09569744020700455,-0.06115775555372238,0.03471315652132034,0.010772623121738434,-0.0030061304569244385,-0.016357779502868652
2025-09-20T02:20:27Z,0.02553226692454189,0.03248084828674763,-0.22773274981487765,-0.10616826266050339,-0.2928334176540375,-0.9502509832382202,0.017583495612212174,0.01083643295871919,-0.11339027389265403,0.9933357483405667,0.09560363739728928,-0.05379036068916321,0.03815783932805061,0.010760180652141571,-0.0027669668197631836,-0.01628267765045166
2025-09-20T02:20:27Z,0.024504682369511838,0.034378750419290345,-0.22697052563604128,-0.10735779255628586,-0.2945312559604645,-0.9495923519134521,0.01846391966036499,0.010225110501188673,-0.11300736248521953,0.9933699073601465,0.09030623733997345,-0.04887105152010918,0.04509739950299263,0.009855896234512329,-0.002179563045501709,-0.015168070793151855
2025-09-20T02:20:27Z,0.023484194662806036,0.036166565256192086,-0.2260900458849426,-0.10856951028108597,-0.2961082458496094,-0.9489639401435852,0.019289956767216163,0.009625352335409558,-0.11256722585018995,0.9934102035668936,0.0847434476017952,-0.04842359200119972,0.05019742622971535,0.008495263755321503,-0.0023158788681030273,-0.013712823390960693
2025-09-20T02:20:27Z,0.022505663446815795,0.03782998961403334,-0.22509570955005964,-0.10976913571357727,-0.29755157232284546,-0.9483742713928223,0.020056570254759185,0.009055311584191797,-0.11207171781472287,0.9934563903118574,0.08112673461437225,-0.04894307255744934,0.05252799391746521,0.007813669741153717,-0.004200488328933716,-0.011438369750976562
2025-09-20T02:20:27Z,0.02144852241307393,0.039444334780256926,-0.22413602587202394,-0.11103275418281555,-0.2989519536495209,-0.9477866291999817,0.020795130102674857,0.00844938019774251,-0.11159524839422585,0.9935001236975877,0.07813447713851929,-0.05298972502350807,0.048280566930770874,0.007763296365737915,-0.005868345499038696,-0.009634077548980713
2025-09-20T02:20:27Z,0.020351879536544687,0.04098205738125112,-0.22325099736819318,-0.11231263726949692,-0.3002887964248657,-0.9472129940986633,0.021494301770544195,0.007828014747667842,-0.11115748825903522,0.9935394030512563,0.0736684575676918,-0.05478718876838684,0.04474962502717972,0.00839395821094513,-0.007306307554244995,-0.011507987976074219
2025-09-20T02:20:27Z,0.019199423508090948,0.04240478246701614,-0.2224727734366931,-0.11361563205718994,-0.30153024196624756,-0.9466630816459656,0.022134184692214096,0.007184759277268128,-0.11077481280577871,0.9935729840324323,0.0696815773844719,-0.05568985268473625,0.038155172020196915,0.009740456938743591,-0.009309738874435425,-0.012340545654296875
2025-09-20T02:20:27Z,0.0180903044983152,0.043781490296183924,-0.22183206030843594,-0.11484029144048691,-0.3027455806732178,-0.9461272954940796,0.02275454640997575,0.00656452805137122,-0.11046093876458123,0.993598198344905,0.06402219831943512,-0.05243704840540886,0.02991626039147377,0.010374821722507477,-0.010899335145950317,-0.013534486293792725
2025-09-20T02:20:27Z,0.016981681193809696,0.04502556189981294,-0.2213688022147866,-0.11601642519235611,-0.30385851860046387,-0.9456268548965454,0.023309961449080964,0.0059502139049462215,-0.11023661194605036,0.9936141033389543,0.06096659228205681,-0.058764535933732986,0.021874696016311646,0.00735849142074585,-0.010306090116500854,-0.011295735836029053
2025-09-20T02:20:27Z,0.015698523358815882,0.046248859951251886,-0.22097185169560107,-0.1173391342163086,-0.30496013164520264,-0.9451088905334473,0.023845907288586876,0.005249812625232573,-0.11004802660535638,0.9936262183775214,0.05859827250242233,-0.06631536781787872,0.020282069221138954,0.005131833255290985,-0.0086098313331604,-0.010334908962249756
2025-09-20T02:20:27Z,0.014317940092575669,0.04743548171819732,-0.2206149396402043,-0.11874212324619293,-0.3060319423675537,-0.9445870518684387,0.024358638945296107,0.004502767970226784,-0.1098813910464652,0.9936358790646511,0.055901527404785156,-0.06867862492799759,0.017302624881267548,0.006077393889427185,-0.0085735023021698,-0.01174706220626831
2025-09-20T02:20:27Z,0.012893075887052052,0.048550448939083654,-0.22033559736593794,-0.12016522884368896,-0.3070460557937622,-0.9440779089927673,0.02483374020088257,0.0037369006658475347,-0.10975488023860525,0.9936413834755472,0.054917097091674805,-0.07015254348516464,0.01160093117505312,0.006109833717346191,-0.00987178087234497,-0.01192086935043335
2025-09-20T02:20:27Z,0.011486267365061698,0.049608278727133005,-0.22020081377643488,-0.12153211236000061,-0.3080250024795532,-0.9435839056968689,0.025281866273392847,0.0029814646340075883,-0.10970092086707092,0.9936385235829532,0.0499831847846508,-0.07141043990850449,0.0025663720443844795,0.006519712507724762,-0.010880380868911743,-0.01140904426574707
2025-09-20T02:20:28Z,0.010114144021427338,0.050556671511501665,-0.2203001519791222,-0.12280376255512238,-0.30893149971961975,-0.9431227445602417,0.025677875051255083,0.002246344718888504,-0.10976390481012246,0.9936233498510303,0.04385494813323021,-0.07084378600120544,-0.0075771743431687355,0.005870714783668518,-0.010171592235565186,-0.012376010417938232
2025-09-20T02:20:28Z,0.008668509928649919,0.05137833629695304,-0.2206053597554514,-0.12408962845802307,-0.30974557995796204,-0.9426873326301575,0.02600695546889262,0.0014789758178122992,-0.10993114121390485,0.9935977734030612,0.036770354956388474,-0.07025820016860962,-0.021074185147881508,0.005828067660331726,-0.009471118450164795,-0.013121545314788818
2025-09-20T02:20:28Z,0.007329175423346466,0.0520658504778236,-0.22115846440728162,-0.12520930171012878,-0.31046587228775024,-0.9423022866249084,0.02627509494448186,0.0007684690164968787,-0.110221082553861,0.9935593561303816,0.03289482742547989,-0.07022986561059952,-0.03469647094607353,0.0055512115359306335,-0.00923338532447815,-0.01254338026046753
2025-09-20T02:20:28Z,0.006027447366192652,0.05267313676619514,-0.22202952010185328,-0.126209557056427,-0.31115230917930603,-0.9419423341751099,0.026505067449735225,7.673266383760397e-05,-0.11066908303951574,0.9935037428674294,0.027492713183164597,-0.06543374806642532,-0.050037965178489685,0.006847493350505829,-0.010631650686264038,-0.013324499130249023
2025-09-20T02:20:28Z,0.004785234435173373,0.05322059229632061,-0.22320387134185177,-0.12707360088825226,-0.31182196736335754,-0.9416046738624573,0.02670793023629708,-0.0005863533431776099,-0.11126740918765118,0.9934313030518993,0.024230986833572388,-0.06390143930912018,-0.06432089954614639,0.005264446139335632,-0.010863244533538818,-0.013300180435180664
2025-09-20T02:20:28Z,0.0035521628188298774,0.05371641228209748,-0.22464528684934718,-0.12785837054252625,-0.31247764825820923,-0.9412810206413269,0.026884710394996354,-0.0012458268157477684,-0.11199861235108882,0.9933438147216681,0.022262398153543472,-0.06350985914468765,-0.0799272432923317,0.0052961185574531555,-0.011040270328521729,-0.013109087944030762
2025-09-20T02:20:28Z,0.00237847200305815,0.054161890780256024,-0.22644266320059536,-0.12849317491054535,-0.31313177943229675,-0.940977156162262,0.02703855728043046,-0.00187802993117163,-0.11290608885559178,0.9932359062899018,0.021702075377106667,-0.06548085063695908,-0.09574715793132782,0.0053073689341545105,-0.011103212833404541,-0.013041377067565918
2025-09-20T02:20:28Z,0.001204558809356777,0.05464634970095594,-0.22848259095068563,-0.129063680768013,-0.3138531744480133,-0.940658688545227,0.027210319291394138,-0.0025161318835570734,-0.1139340520174848,0.9931123791382889,0.02297999896109104,-0.06810850650072098,-0.10279782861471176,0.0035171210765838623,-0.010529696941375732,-0.011219799518585205
2025-09-20T02:20:28Z,-9.266838149095043e-05,0.05517472292370388,-0.23063887319305165,-0.12971851229667664,-0.31462976336479187,-0.9403091073036194,0.02739532498341918,-0.0032199193866229462,-0.11502150393657931,0.992979878886165,0.02691761776804924,-0.07349665462970734,-0.11460661143064499,0.0038357973098754883,-0.012290149927139282,-0.010317087173461914
2025-09-20T02:20:28Z,-0.001505526138556229,0.05588931063049566,-0.23311434576735532,-0.13039682805538177,-0.31562119722366333,-0.9398829340934753,0.02766392351061649,-0.00399672071621321,-0.11626890104988286,0.9928242894963849,0.037442199885845184,-0.08586310595273972,-0.132097065448761,0.003769487142562866,-0.014809459447860718,-0.008206725120544434
2025-09-20T02:20:28Z,-0.003225911068365867,0.05678627335471326,-0.23588018827982704,-0.13128577172756195,-0.3168194591999054,-0.9393558502197266,0.028002355457432154,-0.004941583248565504,-0.11766476461874828,0.9926461061245294,0.04727304354310036,-0.10526684671640396,-0.1441183090209961,0.0029881447553634644,-0.012956857681274414,-0.005770862102508545
2025-09-20T02:20:28Z,-0.005211171416869758,0.0578371226074898,-0.2388220227040701,-0.1323743611574173,-0.3181823790073395,-0.9387422204017639,0.028398268322758442,-0.006030450120053593,-0.11915203521548481,0.9924513895360034,0.055244237184524536,-0.11105088889598846,-0.14500747621059418,0.00282423198223114,-0.01027783751487732,-0.008627712726593018
2025-09-20T02:20:28Z,-0.007329768519706677,0.05897603009475307,-0.2417012860291559,-0.1336013227701187,-0.3196174204349518,-0.9380806684494019,0.028826872630981507,-0.007191003914461631,-0.1206107444725609,0.9922551081117061,0.0521514005959034,-0.11526955664157867,-0.14054585993289948,0.005205050110816956,-0.005482077598571777,-0.011166691780090332
2025-09-20T02:20:28Z,-0.009343251675903417,0.059946298143763815,-0.24435623642715137,-0.1347862035036087,-0.320863276720047,-0.9374856948852539,0.029175845218511715,-0.00828707530274408,-0.12195727484396585,0.9920717377141554,0.040909603238105774,-0.10419661551713943,-0.1258203387260437,0.009060665965080261,0.001100689172744751,-0.017185568809509277
2025-09-20T02:20:28Z,-0.011118319115970833,0.06065708630569198,-0.24669176075280652,-0.135830357670784,-0.32182350754737854,-0.9370057582855225,0.029409402314384242,-0.009245152395790778,-0.12314217257766455,0.9919100100187236,0.025091076269745827,-0.08765196800231934,-0.10616983473300934,0.012390539050102234,0.005003631114959717,-0.020517349243164062
2025-09-20T02:20:28Z,-0.01265673079559693,0.06107613400775893,-0.24871624335966896,-0.13673441112041473,-0.3224695920944214,-0.9366520643234253,0.029512337204067193,-0.01006373772190017,-0.12416926644895103,0.9917709131694901,0.015469452366232872,-0.08014848828315735,-0.08925630897283554,0.01038902997970581,0.004779845476150513,-0.01885741949081421
2025-09-20T02:20:28Z,-0.0141065224395158,0.06139895392414134,-0.25030354426095713,-0.13767047226428986,-0.3229699730873108,-0.9363424777984619,0.029573825824718153,-0.01082611708955691,-0.12497821495716968,0.9916594268111736,0.013533301651477814,-0.07612371444702148,-0.06490802764892578,0.00807487964630127,0.00608333945274353,-0.014479517936706543
2025-09-20T02:20:28Z,-0.015603026247885135,0.061723619032199376,-0.25132888747015814,-0.1387982964515686,-0.3234018087387085,-0.9360268712043762,0.029635341046594474,-0.01160353214166791,-0.12550929970479519,0.9915818334083967,0.01699361577630043,-0.07839765399694443,-0.03628639131784439,0.006263047456741333,0.007497429847717285,-0.011373937129974365
2025-09-20T02:20:28Z,-0.017098466737058816,0.062111044376348734,-0.2517634751024606,-0.14008057117462158,-0.32381904125213623,-0.9356915354728699,0.029730892032631864,-0.012375631452530268,-0.1257477775463095,0.991539382153385,0.0219484381377697,-0.07451535016298294,-0.005214333534240723,0.006527140736579895,0.007578760385513306,-0.01340097188949585
2025-09-20T02:20:28Z,-0.018501070093624707,0.06255066335842206,-0.25160685858368587,-0.14143171906471252,-0.3242119550704956,-0.9353521466255188,0.029861686888705167,-0.013096178345924626,-0.12569211169780783,0.9915332278233342,0.02316606603562832,-0.06502722203731537,0.024482473731040955,0.007840767502784729,0.007093876600265503,-0.016115009784698486
2025-09-20T02:20:28Z,-0.019653834733317773,0.06300740803405297,-0.25082787673522705,-0.14271338284015656,-0.32454368472099304,-0.9350423812866211,0.03002102169706907,-0.013684555752568639,-0.1253244333116095,0.9915669978956019,0.023303095251321793,-0.04590003192424774,0.04814011976122856,0.010140463709831238,0.004520237445831299,-0.01986062526702881
2025-09-20T02:20:28Z,-0.020518010244312344,0.06343840204418824,-0.24957960318456046,-0.14384913444519043,-0.3247927129268646,-0.9347818493843079,0.0301893827085339,-0.014121030632114189,-0.12471984604046851,0.9916319766073026,0.024912239983677864,-0.030250458046793938,0.06924491375684738,0.009645536541938782,0.001010894775390625,-0.020594537258148193
2025-09-20T02:20:28Z,-0.02111226148742495,0.06388858152446658,-0.24795979003451485,-0.14483031630516052,-0.3250129222869873,-0.9345538020133972,0.030387233950442658,-0.014418987517223768,-0.12392710905748996,0.9917210749815358,0.025851834565401077,-0.02216159738600254,0.08998601883649826,0.006528526544570923,0.0015549063682556152,-0.019311964511871338
2025-09-20T02:20:28Z,-0.021660756154954035,0.06434642086380943,-0.2459214744987894,-0.14587879180908203,-0.3251871168613434,-0.9343301057815552,0.030595273408268755,-0.01468800351148083,-0.12292621534117953,0.9918353056818965,0.022208448499441147,-0.018775425851345062,0.11018774658441544,0.005272045731544495,0.0030826926231384277,-0.0174788236618042
2025-09-20T02:20:28Z,-0.02207855915078752,0.06465769153214947,-0.24351341170477678,-0.1469031423330307,-0.3251762390136719,-0.9341733455657959,0.03074190555627567,-0.01487721846340751,-0.12173941315858842,0.9919743204952652,0.017512837424874306,-0.009677423164248466,0.13241732120513916,0.005472809076309204,0.003492385149002075,-0.016680419445037842
2025-09-20T02:20:28Z,-0.022500243360001563,0.06492077088774667,-0.2406864919260401,-0.14804109930992126,-0.32506561279296875,-0.9340322017669678,0.030868047398369867,-0.015058671517395185,-0.1203446151958419,0.9921378567067343,0.015880372375249863,-0.011744679883122444,0.1464550942182541,0.004478946328163147,0.00025597214698791504,-0.012436151504516602
2025-09-20T02:20:28Z,-0.022766535620387458,0.06516548397191017,-0.23767023875446067,-0.14908283948898315,-0.32491153478622437,-0.93392014503479,0.030996324226849576,-0.015158676461813828,-0.11885322821644893,0.9923121325381721,0.014437268488109112,-0.004013679455965757,0.1538621187210083,0.006432399153709412,-0.002316892147064209,-0.01473158597946167
2025-09-20T02:20:28Z,-0.022959051231852223,0.06540358518593514,-0.23440097289477763,-0.1501210629940033,-0.32471638917922974,-0.9338216781616211,0.031127944732673756,-0.01521739254125995,-0.11723488866233667,0.992499638770558,0.014916948974132538,0.00143003324046731,0.16832374036312103,0.006838783621788025,-0.0003038644790649414,-0.015509366989135742
2025-09-20T02:20:28Z,-0.023136335449549086,0.06557957767879787,-0.2307775720870392,-0.15123702585697174,-0.3244144022464752,-0.9337465763092041,0.03123259441546036,-0.015259062539832795,-0.11544003324020105,0.9927060084488463,0.012290673330426216,0.007362710312008858,0.1888522356748581,0.005983859300613403,0.002395331859588623,-0.016034066677093506
2025-09-20T02:20:28Z,-0.023207391407610963,0.06567445245151649,-0.2267585309667731,-0.1523563712835312,-0.32398146390914917,-0.9337149262428284,0.03130627035290039,-0.015236891772676673,-0.1134464186049217,0.9929338416437931,0.005890244618058205,0.012004999443888664,0.21049204468727112,0.005835041403770447,0.004197806119918823,-0.016149282455444336
2025-09-20T02:20:28Z,-0.023191044790604493,0.06565259068807804,-0.22230399472797574,-0.15350669622421265,-0.32337766885757446,-0.9337357878684998,0.03133018163789788,-0.015157801726219607,-0.1112342686239112,0.9931845316807683,0.0039762347005307674,0.015826813876628876,0.24089300632476807,0.006173804402351379,0.007534533739089966,-0.01602017879486084
