timestamp,attitude_roll,attitude_pitch,attitude_yaw,gravity_x,gravity_y,gravity_z,quaternion_x,quaternion_y,quaternion_z,quaternion_w,rotation_rate_x,rotation_rate_y,rotation_rate_z,user_acceleration_x,user_acceleration_y,user_acceleration_z
2025-09-18T12:35:16Z,6.989086638635125e-05,-0.00598279249684817,0.0007342083494878196,-0.23817101120948792,-0.2515656352043152,-0.938077449798584,-0.0029914045041788528,3.3847123062980694e-05,0.000366997999572341,0.9999954270736205,0.004975634627044201,-0.014665624126791954,0.00298889447003603,-0.00010372698307037354,-0.0006900429725646973,-0.0007442831993103027
2025-09-18T12:35:16Z,-0.000268079008870525,-0.005941744895274613,0.0007954926463131569,-0.23850379884243011,-0.2515895366668701,-0.9379864931106567,-0.002970814607161514,-0.0001352205585801031,0.00039814278156395216,0.9999954634123905,0.004121598321944475,-0.01792714186012745,0.0018352249171584845,-0.0002779662609100342,-0.000635296106338501,0.0003871917724609375
2025-09-18T12:35:16Z,-0.0005597225571378825,-0.005871308066318048,0.0007967149772682472,-0.23877765238285065,-0.25165531039237976,-0.9378991723060608,-0.0029355381045502384,-0.0002810294963994482,0.00039917733701841536,0.9999955311751789,0.0038310920353978872,-0.019365208223462105,0.0007592573529109359,-2.4706125259399414e-05,0.00022071599960327148,0.0005781650543212891
2025-09-18T12:35:16Z,-0.0010885939511933427,-0.005732843632612922,0.0008936442444658404,-0.2392985224723816,-0.2517620921134949,-0.937737762928009,-0.0028661741793389876,-0.0005455754756356588,0.000448380419724008,0.9999955726940513,0.0037115933373570442,-0.01730542629957199,0.0055218469351530075,-0.001099899411201477,0.000370025634765625,0.0011941194534301758
2025-09-18T12:35:16Z,-0.0014339275096625684,-0.005666227388185404,0.001027025490695167,-0.23965659737586975,-0.2517927885055542,-0.9376380443572998,-0.002832740834589854,-0.0007184156102416104,0.0005155418034336237,0.9999955259563212,-0.0018963376060128212,-0.015394159592688084,0.007324181497097015,-0.0008158236742019653,0.0009625852108001709,0.0005608201026916504
2025-09-18T12:35:16Z,-0.0016179639173448954,-0.005630773099283467,0.0011242963702124673,-0.23985417187213898,-0.25180289149284363,-0.9375848174095154,-0.0028149268062401733,-0.0008105612293987613,0.0005644233587677691,0.9999955119534967,0.0015716503839939833,-0.013443853706121445,0.006869770586490631,-8.702278137207031e-05,0.00022989511489868164,-0.0008071660995483398
2025-09-18T12:35:16Z,-0.0019137444226424187,-0.005659342981709278,0.0012951740569471177,-0.24017542600631714,-0.2517353594303131,-0.9375206828117371,-0.0028290461930707334,-0.0009587004966413465,0.0006502917287840566,0.9999953192497991,-0.0021809341851621866,-0.011027684435248375,0.005840047262609005,-0.00021660327911376953,-0.0012503266334533691,-0.0013208389282226562
2025-09-18T12:35:16Z,-0.0020569671142859278,-0.005818129639562077,0.0013492257670331376,-0.24032369256019592,-0.2515735626220703,-0.9375261664390564,-0.0029083646564129267,-0.0010304412662773264,0.0006776015328103413,0.9999950221282368,-0.010115910321474075,0.00011713989078998566,0.0013489616103470325,0.0005033761262893677,0.00048276782035827637,-0.002016127109527588
2025-09-18T12:35:16Z,-0.0021194492354537835,-0.006032533720939105,0.0013404119162730558,-0.24038012325763702,-0.2513745427131653,-0.9375650882720947,-0.003015549579762246,-0.0010617408390602204,0.0006733988651623711,0.9999946979052656,-0.01218747440725565,0.002092307433485985,-0.00212910701520741,-0.000924721360206604,0.0010150372982025146,-0.0012882351875305176
2025-09-18T12:35:16Z,-0.002124741619847498,-0.006212355672059873,0.0012772883503398853,-0.24036894738674164,-0.2512208819389343,-0.9376091361045837,-0.0031054919163762194,-0.0010643489839668176,0.0006419405829291003,0.9999944264042987,-0.015157213434576988,0.0010294757084921002,-0.0040998090989887714,-0.0009207576513290405,0.0007398128509521484,-0.0008490681648254395
2025-09-18T12:35:16Z,-0.0021300600587300907,-0.006392177362224399,0.0012141656819687383,-0.24035780131816864,-0.25106725096702576,-0.937653124332428,-0.003195434226605776,-0.00106696446024808,0.0006104832717246554,0.9999941558080422,-0.0181269533932209,-3.3356016501784325e-05,-0.006070510949939489,-0.0009167641401290894,0.0004646182060241699,-0.0004099607467651367
2025-09-18T12:35:16Z,-0.0023839097072262333,-0.007085931504340409,0.0008363077111868629,-0.24049906432628632,-0.25050634145736694,-0.9377669095993042,-0.003542457233835116,-0.0011934285332277372,0.00042237398368177783,0.9999928852425977,-0.01635059528052807,-0.01103570032864809,-0.011296071112155914,-0.0016529262065887451,-0.00041878223419189453,0.0006984472274780273
2025-09-18T12:35:16Z,-0.0027407839272562224,-0.007453844882196449,0.0005070411810503114,-0.2407492697238922,-0.2502395212650299,-0.9377739429473877,-0.003726563035881843,-0.001371326918365118,0.00025862593894138505,0.9999920123236657,-0.010181203484535217,-0.012624287977814674,-0.01598755642771721,-0.00019878149032592773,-0.000674128532409668,-0.0006063580513000488
2025-09-18T12:35:16Z,-0.0030625926819159138,-0.007649796396773223,0.00021176766556223864,-0.24097523093223572,-0.2501259446144104,-0.9377462267875671,-0.0038247224267349343,-0.0015316896056965165,0.00011173997634016623,0.9999914544610535,-0.006274685729295015,-0.0125652514398098,-0.014410974457859993,-0.0009450763463973999,0.0009235292673110962,0.0016907453536987305
2025-09-18T12:35:16Z,-0.0033060828599201296,-0.007723681563511639,5.891730159906988e-05,-0.24116429686546326,-0.250093013048172,-0.9377064108848572,-0.003861777324146529,-0.0016531421634788585,3.58421563609175e-05,0.9999911463115186,-0.004837807733565569,-0.01778317801654339,-0.007406269200146198,-0.0023606866598129272,0.003395557403564453,0.0024169087409973145
2025-09-18T12:35:16Z,-0.0037405437542550922,-0.00778666237575357,2.506353113689468e-05,-0.24156305193901062,-0.25004199147224426,-0.9376173615455627,-0.003893291036782609,-0.0018703053692589431,1.9813213259225066e-05,0.9999906893610634,-0.0024837604723870754,-0.012699872255325317,0.001049380749464035,0.000817522406578064,-8.890032768249512e-05,-0.0061959028244018555
2025-09-18T12:35:16Z,-0.003667540266709919,-0.0078096729128167095,1.4914713089603464e-05,-0.24149201810359955,-0.250022828578949,-0.9376407861709595,-0.0039048061412605565,-0.0018337841737114428,1.4617836289760233e-05,0.9999907334719779,-0.0005912716733291745,0.025464925915002823,-0.001289665000513196,0.003103986382484436,-0.00033977627754211426,-0.01344001293182373
2025-09-18T12:35:16Z,-0.003223770784424893,-0.00789292553697778,-1.9823905717138702e-05,-0.241067036986351,-0.24995295703411102,-0.9377687573432922,-0.00394646317008727,-0.0016118329415741536,-3.5506368491292006e-06,0.9999909653939216,-0.005173083860427141,0.03429998457431793,-0.0015631242422387004,0.0015633851289749146,0.0035448670387268066,-0.008397936820983887
2025-09-18T12:35:16Z,-0.0024022996105249822,-0.008218123847080339,-5.415767607740981e-05,-0.24028795957565308,-0.24965590238571167,-0.9380477666854858,-0.0041090797301550075,-0.0012010280519196561,-2.2143005477941673e-05,0.9999908824458404,-0.019412795081734657,0.017013587057590485,0.003999169450253248,-0.00148676335811615,0.005510106682777405,0.002087533473968506
2025-09-18T12:35:16Z,-0.002167148355831691,-0.008695446961837773,1.8549274019226088e-06,-0.2400820255279541,-0.24919450283050537,-0.9382231831550598,-0.004347706098114108,-0.0010835677250484823,5.63851907945185e-06,0.9999899910792923,-0.019359946250915527,0.006137463264167309,0.0012620000634342432,0.0017211288213729858,0.0012166649103164673,0.0017153620719909668
2025-09-18T12:35:16Z,-0.0020659851680160466,-0.008887159191682757,4.816726027234733e-05,-0.23999914526939392,-0.24900351464748383,-0.9382950663566589,-0.0044435375019117665,-0.0010330891674275523,2.867354648132635e-05,0.9999896430101264,-0.006474733352661133,0.006858492270112038,0.001129068317823112,0.0015424638986587524,-0.0018327832221984863,0.002689659595489502
2025-09-18T12:35:16Z,-0.001883379936471817,-0.008861867005100561,6.823721749497916e-05,-0.23983295261859894,-0.2490224838256836,-0.9383325576782227,-0.004430884748601435,-0.0009418317272513955,3.8290808368149146e-05,0.9999897752157809,0.011426284909248352,0.004484772682189941,0.0017970821354538202,-0.000272214412689209,-0.003300487995147705,0.0022497177124023438
2025-09-18T12:35:16Z,-0.0017383495113640693,-0.008553539330901893,0.0002521587065409866,-0.23974403738975525,-0.24926812946796417,-0.9382900595664978,-0.004276645281544612,-0.0008697058779265966,0.00012979539704682268,0.9999904948946031,0.01963578164577484,0.010481844656169415,0.013182148337364197,-0.0002682507038116455,0.0013249218463897705,-0.0013445615768432617
2025-09-18T12:35:16Z,-0.0014483859832351688,-0.008249572835853492,0.0007809364950075576,-0.23960785567760468,-0.24942749738693237,-0.9382824897766113,-0.0041244905572842905,-0.0007257973062200126,0.00039345194633134923,0.9999911525408356,0.015785617753863335,0.014304029755294323,0.02345423400402069,1.862645149230957e-06,0.0019059181213378906,-0.0019617080688476562
2025-09-18T12:35:16Z,-0.0011585547137164412,-0.007945468295754713,0.0013096228802971757,-0.23947174847126007,-0.24958693981170654,-0.9382748007774353,-0.003972342778423977,-0.0005818740004965674,0.0006571074099799381,0.9999917468790569,0.011935452930629253,0.018126215785741806,0.033726319670677185,0.00027208030223846436,0.0024870336055755615,-0.002578914165496826
2025-09-18T12:35:16Z,-0.0008688995194066951,-0.007641239053535982,0.0018382243888334178,-0.23933573067188263,-0.2497464418411255,-0.9382671117782593,-0.003820208814985798,-0.0004379579443021865,0.0009207650992898883,0.9999922191264572,0.008085288107395172,0.021948400884866714,0.04399840533733368,0.0005423575639724731,0.0030681341886520386,-0.0031962990760803223
2025-09-18T12:35:16Z,-0.0005275176445339242,-0.007563293120977369,0.0025277992140037863,-0.23919251561164856,-0.24965505301952362,-0.9383279085159302,-0.003781300837691491,-0.00026853631697222445,0.0012648875631994761,0.9999920664367876,0.0037784953601658344,0.024826480075716972,0.05118798092007637,-0.0004709213972091675,0.0014583468437194824,-0.0034534335136413574
2025-09-18T12:35:16Z,-0.0001861888710202117,-0.007485137806595509,0.003217352140982483,-0.23904916644096375,-0.24956370890140533,-0.9383887648582458,-0.003742405655083331,-9.911423042490229e-05,0.001609012559797049,0.9999916696915171,-0.000528296921402216,0.02770455926656723,0.05837755650281906,-0.0014843642711639404,-0.00015142560005187988,-0.003710627555847168
2025-09-18T12:35:16Z,0.0007223895861249287,-0.007521771379422276,0.005748955764116401,-0.23884527385234833,-0.24892380833625793,-0.9386106133460999,-0.00376189927994958,0.0003503801970374525,0.00287309500480687,0.9999887349871178,0.005506325047463179,0.016761433333158493,0.060402799397706985,-0.0007448643445968628,-0.0068603456020355225,-0.003650188446044922
2025-09-18T12:35:16Z,0.000941247973986324,-0.007445581503534294,0.006538518331908588,-0.23884189128875732,-0.24880611896514893,-0.938642680644989,-0.0037243004224776464,0.0004584474765556151,0.0032674783031593426,0.9999876218467408,0.006982174701988697,0.015466961078345776,0.05013543367385864,0.0009592771530151367,-0.008033499121665955,-0.003072679042816162
2025-09-18T12:35:16Z,0.001284517058900296,-0.007293821267334823,0.007653093803804846,-0.2388046830892563,-0.2486811876296997,-0.9386852383613586,-0.0036493326222628206,0.0006282944914620223,0.0038241690017854217,0.999985854940254,0.009561384096741676,0.007179029285907745,0.03107038326561451,0.0015293806791305542,-0.004267409443855286,0.0010241866111755371
2025-09-18T12:35:16Z,0.0014028699100862689,-0.007097306356628223,0.008132653907556181,-0.23881614208221436,-0.2487504482269287,-0.9386639595031738,-0.0035514677624413436,0.0006869947724801139,0.004063800027051353,0.9999851986098062,0.006700070109218359,0.003789986250922084,0.018275301903486252,0.0014544874429702759,-0.003442615270614624,0.003083646297454834
2025-09-18T12:35:16Z,0.0014287284904731842,-0.00701144103100729,0.008326311304958131,-0.23884136974811554,-0.24878451228141785,-0.938648521900177,-0.003508656031086702,0.0006997588175669779,0.004160612634141798,0.9999849475554392,0.0037469069939106703,-0.00011259038001298904,0.011203950271010399,0.0011021196842193604,-0.001395493745803833,0.0011730790138244629
2025-09-18T12:35:16Z,0.001398126575265082,-0.0069329301985193515,0.008485993475784596,-0.23891088366508484,-0.24881981313228607,-0.938621461391449,-0.003469392273635131,0.0006843446284320192,0.004240534312062169,0.9999847359417301,0.0008238386362791061,-0.002827438758686185,0.0037666885182261467,-4.872679710388184e-06,-0.0007523298263549805,-0.0005162954330444336
2025-09-18T12:35:16Z,0.0013619138783616575,-0.006819508917621656,0.008543929287891236,-0.2389596849679947,-0.24891230463981628,-0.9385845065116882,-0.003412625095678733,0.0006663804678095275,0.004269604143145306,0.9999847962093359,0.0047561717219650745,-0.0032474894542247057,-0.0018433546647429466,0.0017603933811187744,-0.003675982356071472,-0.002484560012817383
2025-09-18T12:35:16Z,0.0012867201431120843,-0.006717368957574112,0.008455596610931827,-0.23900774121284485,-0.24902936816215515,-0.9385412335395813,-0.003361367534526051,0.0006291508995569848,0.004225600306766054,0.9999851921994435,0.0059503517113626,-0.0026418722700327635,-0.00509127601981163,0.0009097158908843994,-0.0037208199501037598,-0.002949059009552002
2025-09-18T12:35:16Z,0.0012848453659848854,-0.006504184410775485,0.008176650139655964,-0.2389383465051651,-0.2492963820695877,-0.9384880065917969,-0.003254685096485572,0.0006291183373162547,0.0040862020985280405,0.9999861381298679,0.00597556633874774,-0.0007749595679342747,-0.010868174955248833,0.002224668860435486,-0.0030706077814102173,-0.0017431974411010742
2025-09-18T12:35:16Z,0.0012520491102214085,-0.00632752446153685,0.007943932527352112,-0.2389097362756729,-0.24951797723770142,-0.9384363889694214,-0.0031662180260529607,0.0006134501648964352,0.0039699547397126726,0.9999868810648399,0.00464869849383831,-9.024603059515357e-05,-0.01446753740310669,-0.00028568506240844727,-0.0014102011919021606,-0.00010079145431518555
2025-09-18T12:35:17Z,0.0011382181375179238,-0.006340858668587837,0.007748478376645117,-0.23896661400794983,-0.249552384018898,-0.9384127855300903,-0.003172604747309144,0.0005568189891939104,0.0038724053178238065,0.9999872566972273,0.0021018916741013527,-0.002892159391194582,-0.012045609764754772,-0.00011596083641052246,-0.0008440464735031128,-0.0002624988555908203
2025-09-18T12:35:17Z,0.0010243993043717128,-0.006354200046849523,0.007553024985981219,-0.23902346193790436,-0.2495867758989334,-0.9383891820907593,-0.0031790061347280077,0.0005001951167522503,0.003774856920475039,0.999987629482177,-0.0004449149128049612,-0.0056940726935863495,-0.009623682126402855,5.3748488426208496e-05,-0.0002778768539428711,-0.0004241466522216797
2025-09-18T12:35:17Z,0.0009105924739176616,-0.006367548718386544,0.007357571399307178,-0.2390803098678589,-0.24962115287780762,-0.9383655190467834,-0.003185422246621041,0.00044357848498553597,0.0036773090751363825,0.9999879994213892,-0.0029917219653725624,-0.008495986461639404,-0.007201754488050938,0.00022348761558532715,0.00028827786445617676,-0.0005857944488525391
2025-09-18T12:35:17Z,0.0006203586409560315,-0.006465550744412019,0.007216637722865667,-0.2393166422843933,-0.2495630532503128,-0.9383207559585571,-0.0032338677341494306,0.0002985108352383763,0.003607289244367291,0.99998822758206,-0.001997721614316106,-0.011804824694991112,0.0035159247927367687,0.0003327280282974243,0.0016631782054901123,-3.1888484954833984e-05
2025-09-18T12:35:17Z,0.000473810762669268,-0.006461716917809563,0.007260016520133425,-0.23946522176265717,-0.24955624341964722,-0.9382846355438232,-0.0032316914510002502,0.0002251745871578177,0.003629215870283962,0.9999881584327157,-0.0009021124569699168,-0.009974183514714241,0.009947948157787323,-2.8714537620544434e-05,0.0028862059116363525,-0.00014847517013549805
2025-09-18T12:35:17Z,0.0002492946249711632,-0.0064477890766845665,0.007531481414480565,-0.23974525928497314,-0.2495041787624359,-0.9382269978523254,-0.003224335458010474,0.00011250547958316315,0.0037653103643722078,0.9999877060155197,0.0018323195399716496,-0.010826600715517998,0.0159638412296772,-0.0011335015296936035,0.0018965303897857666,-0.0016082525253295898
2025-09-18T12:35:17Z,0.00011828798756873573,-0.006420988748592623,0.007848918972391926,-0.2399492859840393,-0.2494531273841858,-0.938188374042511,-0.0032106962318965296,4.654383236867197e-05,0.0039242392946924306,0.9999871462824301,0.0002686985535547137,-0.00932655856013298,0.020534859970211983,-0.0007304102182388306,0.002705022692680359,-0.0025707483291625977
2025-09-18T12:35:17Z,-3.102056601352768e-05,-0.006386006350873858,0.008541577549273921,-0.24026626348495483,-0.24931961297988892,-0.9381427764892578,-0.003192902382813631,-2.914663986634661e-05,0.004270803535464582,0.9999857843269072,0.006581689231097698,-0.0025236806832253933,0.02886521816253662,-0.0012963712215423584,-0.0001885443925857544,-0.005005002021789551
2025-09-18T12:35:17Z,-3.50340747942889e-05,-0.006112096150551473,0.009255191204041611,-0.24045217037200928,-0.24940508604049683,-0.9380724430084229,-0.0030559294242481416,-3.1658848011746437e-05,0.004627610840351786,0.999984658809265,0.02174856700003147,-0.0004092270974069834,0.03796679899096489,-0.0033953189849853516,0.0024897009134292603,-0.004873692989349365
2025-09-18T12:35:17Z,8.952961311512544e-05,-0.005740933528156149,0.009955302583416733,-0.2405139058828354,-0.2495848834514618,-0.9380087852478027,-0.0028706499016067457,3.0475963479940252e-05,0.004977481420706202,0.9999835536940176,0.029225287958979607,0.010103752836585045,0.05110430717468262,-0.00161038339138031,0.005404040217399597,-0.006139397621154785
2025-09-18T12:35:17Z,0.0003452060589675826,-0.00533292701622272,0.010693140032452529,-0.24046213924884796,-0.24978996813297272,-0.9379674792289734,-0.002667344944859427,0.00015834359538598197,0.005346065066389847,0.999982169290639,0.03634306788444519,0.02102222479879856,0.06066153943538666,-0.0018309950828552246,0.005584582686424255,-0.006484866142272949
2025-09-18T12:35:17Z,0.0006005665479523403,-0.004924716070762235,0.011430871742910256,-0.24041056632995605,-0.24999508261680603,-0.9379259943962097,-0.0024640314272108598,0.0002862040938789022,0.005714647717104157,0.9999806051836136,0.043460845947265625,0.03194069489836693,0.0702187716960907,-0.0020513981580734253,0.005765214562416077,-0.0068305134773254395
2025-09-18T12:35:17Z,0.0016211622968146154,-0.003532023099517346,0.01388480139316562,-0.24007785320281982,-0.25070881843566895,-0.9378207325935364,-0.0017715947535876695,0.0007982999830088329,0.006940900111391524,0.9999740599405915,0.05445288494229317,0.038039881736040115,0.09420494735240936,-0.0019668787717819214,0.0030685365200042725,-0.002790093421936035
2025-09-18T12:35:17Z,0.00198846407847729,-0.0029925097389765587,0.014895500863899472,-0.2399902492761612,-0.2509702146053314,-0.9377732276916504,-0.001503616731980362,0.000983059532436709,0.0074461817032214946,0.9999707001289002,0.061793167144060135,0.03926088288426399,0.1030535027384758,-0.00154152512550354,0.0010861754417419434,-0.0029796361923217773
2025-09-18T12:35:17Z,0.004105755916483532,0.00043649677316774817,0.019819039514499485,-0.2392541915178299,-0.2529888153076172,-0.9374188184738159,0.00019789453615791746,0.0020549385521997157,0.00990978534887419,0.999948677400989,0.10522128641605377,0.06111525371670723,0.1311294138431549,-0.005231693387031555,0.0016311109066009521,-0.0008844733238220215
2025-09-18T12:35:17Z,0.005315014233520954,0.002299275326179427,0.022228400518997805,-0.23873083293437958,-0.2541463375091553,-0.9372391700744629,0.0011200269150885552,0.00267011502200333,0.011116979545608852,0.9999340381555122,0.1063653752207756,0.06866638362407684,0.13482902944087982,-0.00384385883808136,0.0006243586540222168,-0.0019006133079528809
2025-09-18T12:35:17Z,0.0065197869246257124,0.004165043727037064,0.024635505249404003,-0.23821042478084564,-0.2553047835826874,-0.9370567202568054,0.002042197949098409,0.003285284550629855,0.012324137425804802,0.9999165580487042,0.10750946402549744,0.07621751725673676,0.13852864503860474,-0.0024530738592147827,-0.0003814399242401123,-0.002919495105743408
2025-09-18T12:35:17Z,0.007720093050564109,0.006033687437789827,0.027040379520568137,-0.23769302666187286,-0.2564641535282135,-0.9368714690208435,0.002964354438777408,0.003900453415258717,0.013531260143268038,0.9998964109770031,0.10865355283021927,0.08376865088939667,0.14222827553749084,-0.0010592639446258545,-0.0013863146305084229,-0.003941178321838379
2025-09-18T12:35:17Z,0.01034971161590642,0.009567692779523145,0.03172344194848466,-0.2364097684621811,-0.25861719250679016,-0.9366042613983154,0.00470108515718107,0.005249998339580655,0.01588541513499288,0.9998489377903607,0.09427689760923386,0.07902733236551285,0.1280430108308792,0.0007454660953953862,-0.003162696724757552,0.0016712475335225463
2025-09-18T12:35:17Z,0.011487532387271215,0.011101988350680924,0.03387677752679486,-0.23588545620441437,-0.25951963663101196,-0.9364868402481079,0.005452794490456877,0.005836840698942021,0.016968917579157257,0.9998240876920044,0.07994925230741501,0.06299499422311783,0.11062709242105484,0.0006461888551712036,-0.004870712757110596,0.0047454833984375
2025-09-18T12:35:17Z,0.012622089114241671,0.012638626144487613,0.03602841206409662,-0.23536323010921478,-0.260422945022583,-0.9363674521446228,0.006204440507906379,0.0064236808346547535,0.018052387564261252,0.9997971700897391,0.06562159955501556,0.04696265235543251,0.09321117401123047,0.0005490034818649292,-0.006577908992767334,0.007817745208740234
2025-09-18T12:35:17Z,0.013675734632268267,0.014829398751937482,0.03895515560280526,-0.23511065542697906,-0.26174265146255493,-0.9360629320144653,0.0072798797580247,0.006980735671990041,0.019526045905887128,0.9997584703699307,0.05488331988453865,0.01672361046075821,0.06572534143924713,-0.000924721360206604,-0.008752554655075073,0.00838625431060791
2025-09-18T12:35:17Z,0.013797131593753119,0.0159825978697958,0.04007650146257183,-0.2352789044380188,-0.2625400424003601,-0.9357972741127014,0.00785119894784152,0.007057021257153646,0.02009090940850978,0.9997424337109503,0.055135127156972885,0.0006224643439054489,0.051778726279735565,-8.060038089752197e-05,-0.006515294313430786,0.006457984447479248
2025-09-18T12:35:17Z,0.013791049607145793,0.017107314809321737,0.040956502736645646,-0.23550641536712646,-0.26337018609046936,-0.9355067610740662,0.008410363963967556,0.007068917349078457,0.020534551992901395,0.9997288080207797,0.051532164216041565,-0.0039655533619225025,0.03945908322930336,0.0011003464460372925,-0.005212068557739258,0.0017769932746887207
2025-09-18T12:35:17Z,0.013761614966989763,0.018103588557212794,0.041600959485365324,-0.23569688200950623,-0.2641386389732361,-0.9352420568466187,0.0089063915225333,0.0070672439156484025,0.02085990413455407,0.9997177638724295,0.042223140597343445,-0.0009812822099775076,0.027594760060310364,0.0019393861293792725,-0.004547029733657837,-0.0019137263298034668
2025-09-18T12:35:17Z,0.013665376152755431,0.0188653866039258,0.042063126792028026,-0.2359038144350052,-0.26473361253738403,-0.9350216388702393,0.009286563499124639,0.00702918225728895,0.021093022101882415,0.9997096445567628,0.025914233177900314,-0.002391638932749629,0.01853361912071705,0.0003187805414199829,-0.002660393714904785,-0.0030849575996398926
2025-09-18T12:35:17Z,0.013605871085026887,0.01939857034853182,0.04236526596087295,-0.2360360026359558,-0.26515522599220276,-0.9348688125610352,0.009552647584049766,0.007006470211508854,0.021245530286850344,0.9997040728701948,0.015146762132644653,-0.010550625622272491,0.014747551642358303,-0.000615343451499939,-0.0026288628578186035,-0.0006719827651977539
2025-09-18T12:35:17Z,0.013523824573003088,0.019694846934338973,0.04264040840006821,-0.23618172109127045,-0.26536279916763306,-0.9347731471061707,0.0097006547214928,0.006969921040794818,0.021383638246981737,0.9997000071860347,0.009215936064720154,-0.000847802497446537,0.009511458687484264,0.00013753771781921387,-0.0035080015659332275,-0.0026984214782714844
2025-09-18T12:35:17Z,0.01357884832018687,0.019819092014546635,0.042768296373346164,-0.23616230487823486,-0.2654467225074768,-0.9347541928291321,0.009761723053433615,0.006999369088669359,0.021448238720171296,0.9996978083151155,0.00407138979062438,0.008254265412688255,0.006338460370898247,0.0016144663095474243,-0.0024226903915405273,-0.0035475492477416992
2025-09-18T12:35:17Z,0.013716980394986334,0.01965760190894782,0.04283955265264736,-0.23605017364025116,-0.26527854800224304,-0.9348302483558655,0.009679269013215945,0.00706703814023071,0.021483993616544482,0.9996973677976079,-0.0031606792472302914,0.006837842985987663,0.004281399305909872,0.0016800910234451294,-0.001868605613708496,-0.0023676156997680664
2025-09-18T12:35:17Z,0.013855109236800374,0.01949609208491367,0.04291083428871085,-0.23593805730342865,-0.2651103734970093,-0.9349062442779541,0.00959680011045579,0.007134699564891235,0.02151974946052355,0.9996969262493495,-0.010392747819423676,0.005421420559287071,0.002224338473752141,0.0017457008361816406,-0.0013145506381988525,-0.0011878013610839844
2025-09-18T12:35:17Z,0.013993277956856927,0.01933462190466048,0.04298212747240326,-0.23582589626312256,-0.2649422287940979,-0.9349822402000427,0.009514345591498469,0.007202375462312876,0.021555499720180556,0.9996964848403239,-0.01762481778860092,0.004004998132586479,0.0001672774087637663,0.0018112361431121826,-0.000760495662689209,-8.046627044677734e-06
2025-09-18T12:35:17Z,0.01407500313520925,0.01895365373566835,0.04302390505670793,-0.23575833439826965,-0.26457688212394714,-0.9351027011871338,0.009322887384878433,0.007239340753605386,0.021575471813390056,0.9996975068033572,-0.019166797399520874,0.0037029962986707687,-0.000271317403530702,0.00029462575912475586,-0.0007042288780212402,-0.0005394816398620605
2025-09-18T12:35:17Z,0.014212497526561401,0.01861089807393511,0.043006802406311086,-0.2356242686510086,-0.26426178216934204,-0.9352256059646606,0.009150139666049658,0.007304313887250755,0.02156638017094096,0.9996988667728779,-0.017032543197274208,0.005116290412843227,-0.002266655443236232,-0.00020711123943328857,-0.0017790496349334717,-0.001728832721710205
2025-09-18T12:35:17Z,0.014273833584105874,0.018291052906132237,0.04298494797226063,-0.2355603128671646,-0.26396921277046204,-0.9353243112564087,0.008989683080725064,0.007331446294300252,0.021554626690803613,0.9997004159518641,-0.013693379238247871,0.004451395012438297,-0.0021974481642246246,-0.0004784911870956421,-0.00195273756980896,-0.0009043216705322266
2025-09-18T12:35:17Z,0.01427342433870444,0.018031732198305284,0.04289854361974064,-0.23553836345672607,-0.26374900341033936,-0.9353919625282288,0.008860382870852076,0.007328081680805547,0.021510537584020224,0.9997024603732436,-0.007568433880805969,0.00020332727581262589,-0.0033564199693500996,-0.0003703087568283081,-0.00204312801361084,-0.0018077492713928223
2025-09-18T12:35:17Z,0.014239841891309871,0.017885304498993705,0.04275346476477448,-0.23553341627120972,-0.2636486291885376,-0.9354215264320374,0.008788081888978954,0.007309092430735687,0.021437363595448174,0.9997048192522263,-0.004533346742391586,-0.003567290026694536,-0.00982713233679533,-0.0002256631851196289,-0.0038311779499053955,-0.001337289810180664
2025-09-18T12:35:17Z,0.014148132022949726,0.017843143057515002,0.04241057534969648,-0.2355343997478485,-0.2636946439743042,-0.9354082942008972,0.008769235226933016,0.007261298324387507,0.021265420675649464,0.999709021473658,-0.0012404820881783962,-0.010994942858815193,-0.020411252975463867,0.0005287379026412964,-0.004447042942047119,-0.001115560531616211
2025-09-18T12:35:17Z,0.013902048212939477,0.01784596201766142,0.04186170830965635,-0.23562900722026825,-0.2638337314128876,-0.9353452324867249,0.008775219564625668,0.007135914127172647,0.020989996664197617,0.9997156776131404,-0.0005835122428834438,-0.014835244044661522,-0.02694222331047058,0.00018531084060668945,-0.0015222132205963135,-0.0018530488014221191
2025-09-18T12:35:17Z,0.013620929608510994,0.017785739290776443,0.041283229409666486,-0.23574873805046082,-0.2639213502407074,-0.9352903366088867,0.008750089905060246,0.006992235966062224,0.02069940564956193,0.9997229478109335,-0.00298813683912158,-0.012476431205868721,-0.026625415310263634,0.0007318407297134399,0.0017645657062530518,-0.00037997961044311523
2025-09-18T12:35:17Z,0.01335504831639375,0.017684417153835806,0.040730590030994385,-0.23586039245128632,-0.2639641761779785,-0.9352501034736633,0.008704089057526367,0.006855884559618832,0.020421668740460527,0.9997300165333468,-0.009564434178173542,-0.01458801981061697,-0.025141283869743347,0.0011920183897018433,0.00348469614982605,-7.396936416625977e-05
2025-09-18T12:35:17Z,0.013063868600268976,0.017457508435816328,0.04017786488334793,-0.23599515855312347,-0.263889878988266,-0.9352371096611023,0.008595491706231459,0.0067056551568156295,0.020143391890447126,0.9997375961066606,-0.014247624203562737,-0.01739180088043213,-0.019667113199830055,-0.0004243701696395874,0.0038306117057800293,0.0002828240394592285
2025-09-18T12:35:17Z,0.012795788043761046,0.017151875743580087,0.039779528179631776,-0.2361462116241455,-0.2637037932872772,-0.9352514147758484,0.008446723100673605,0.006566906879022053,0.01994217220347858,0.9997437943080442,-0.017575813457369804,-0.013704474084079266,-0.01578018255531788,3.9637088775634766e-06,0.001330256462097168,0.0006010532379150391
2025-09-18T12:35:17Z,0.012463590474472796,0.016744161781419877,0.03946580528994631,-0.23637789487838745,-0.2634015679359436,-0.935278058052063,0.00824723241972519,0.006395512991336476,0.019782709663246918,0.9997498179731934,-0.019894368946552277,-0.013562635518610477,-0.01632167212665081,0.0004718899726867676,-0.00046762824058532715,0.0007886290550231934
2025-09-18T12:35:17Z,0.01220398411239122,0.016192619500815117,0.03900000793059429,-0.23650352656841278,-0.26300284266471863,-0.9353585243225098,0.007975554778326115,0.006258457639952987,0.01954715977992734,0.9997575209770398,-0.025161676108837128,-0.013640552759170532,-0.020582718774676323,0.00040331482887268066,-0.0012444853782653809,0.00017380714416503906
2025-09-18T12:35:17Z,0.011944154258108793,0.015641142991543594,0.03853406941826675,-0.23662933707237244,-0.26260408759117126,-0.9354387521743774,0.007703847901069382,0.006121416252123995,0.01931160552007236,0.9997650972536652,-0.03042898327112198,-0.013718469999730587,-0.024843763560056686,0.00033493340015411377,-0.0020213723182678223,-0.0004412531852722168
2025-09-18T12:35:17Z,0.011684041353724061,0.015089805681297926,0.03806799294456473,-0.23675537109375,-0.2622053325176239,-0.935518741607666,0.007432149413192923,0.005984360187094645,0.019076049632538655,0.9997724947371255,-0.03569629043340683,-0.013796387240290642,-0.0291048102080822,0.00026679039001464844,-0.0027982592582702637,-0.0010565519332885742
2025-09-18T12:35:17Z,0.01145109960374596,0.014367828240479991,0.03735954413959811,-0.2367953360080719,-0.26170727610588074,-0.9356480240821838,0.007075538798675998,0.005858554558124956,0.018719021468873356,0.999782595726208,-0.042302247136831284,-0.01428095530718565,-0.037504635751247406,0.0002530813217163086,-0.0029543936252593994,-0.0011802315711975098
2025-09-18T12:35:17Z,0.011181368246990451,0.013371946410575592,0.03650080283499246,-0.23683153092861176,-0.26099053025245667,-0.935839056968689,0.006582681834498662,0.005711611226897165,0.018286067966035283,0.999794796326223,-0.05039525777101517,-0.017940286546945572,-0.045649632811546326,0.00043267011642456055,-0.0018820464611053467,-0.00011181831359863281
2025-09-18T12:35:17Z,0.01084688828983427,0.012329344244180616,0.035437963254080676,-0.23687739670276642,-0.26028016209602356,-0.9360252618789673,0.006067484197247355,0.0055316869224516126,0.01775088552144918,0.9998087180772508,-0.05664890259504318,-0.02294354885816574,-0.0578659325838089,-0.001392275094985962,-0.003967225551605225,0.001612544059753418
2025-09-18T12:35:18Z,0.010412062197276082,0.011167423982794845,0.034154898241809076,-0.23696193099021912,-0.25951215624809265,-0.9362171292304993,0.005493893597326481,0.0053005165458682845,0.017105186189514492,0.9998245349452306,-0.06268864870071411,-0.026999933645129204,-0.06761115044355392,0.0001726895570755005,-0.006775081157684326,0.0006864070892333984
2025-09-18T12:35:18Z,0.009845117521017016,0.009900048572911335,0.03261623333010367,-0.23710598051548004,-0.2587078809738159,-0.936403214931488,0.004869013092763409,0.005002544703974605,0.016331359813363738,0.9998422631280579,-0.06256716698408127,-0.03056269884109497,-0.08268363773822784,0.00040540099143981934,-0.006722092628479004,0.0021468400955200195
2025-09-18T12:35:18Z,0.009207989173103536,0.008616708009408362,0.030761669096905545,-0.23723648488521576,-0.2579653263092041,-0.9365749955177307,0.004236975993716174,0.004669653768654459,0.015399756114496482,0.999861497400576,-0.06278552860021591,-0.03702406957745552,-0.09552567452192307,-0.0010962635278701782,-0.005611896514892578,0.0038293004035949707
2025-09-18T12:35:18Z,0.008482358682739406,0.0074158646411804936,0.028748419040844037,-0.2374098300933838,-0.2573375701904297,-0.9367037415504456,0.0036465467460356123,0.0042939957668104494,0.014389211650681242,0.9998805375009363,-0.06252093613147736,-0.040728725492954254,-0.10463137924671173,-0.002508223056793213,-0.008531302213668823,-0.00036031007766723633
2025-09-18T12:35:18Z,0.007806407037717751,0.006191835984027888,0.02646370159822423,-0.23746781051158905,-0.25675320625305176,-0.9368494153022766,0.0030439738301804944,0.003943796510101708,0.013243383838293803,0.9998998574157425,-0.05907747521996498,-0.024963464587926865,-0.1236203983426094,0.003939718008041382,-0.01250872015953064,-0.00786679983139038
2025-09-18T12:35:18Z,0.0073851823579528875,0.005064466075119469,0.023720980228601248,-0.23717108368873596,-0.25636938214302063,-0.9370296597480774,0.002488240459134207,0.003722344082066052,0.011869443809177704,0.9999194610484012,-0.05942707508802414,-0.01918579824268818,-0.14565886557102203,0.004962220788002014,-0.011449694633483887,-0.004374980926513672
2025-09-18T12:35:18Z,0.006858842973676653,0.003852958963455607,0.02053526279456563,-0.2368592917919159,-0.2560124099254608,-0.9372060894966125,0.001891154296451903,0.00344900785203206,0.010273978835015291,0.9999393941997873,-0.05859355628490448,-0.03362981230020523,-0.16595393419265747,0.0034194588661193848,-0.006555378437042236,0.0008828639984130859
2025-09-18T12:35:18Z,0.005989492105096639,0.00267733159465148,0.017021419248713848,-0.23678378760814667,-0.2557656764984131,-0.9372925758361816,0.001313123958300059,0.0030060234552312126,0.008514570512400926,0.9999582987366803,-0.059098273515701294,-0.05500397831201553,-0.1826091855764389,0.0018278807401657104,-0.004004746675491333,0.0027480125427246094
2025-09-18T12:35:18Z,0.004861985076719152,0.0015873221532393166,0.01312269695782593,-0.23684988915920258,-0.25568854808807373,-0.9372969269752502,0.0007776911434866536,0.0024361445927524364,0.006563209579568699,0.9999751473588002,-0.05527854338288307,-0.06510451436042786,-0.20075193047523499,0.0025566518306732178,-0.005627095699310303,0.002804100513458252
2025-09-18T12:35:18Z,0.003192855639021252,0.0007266768647028772,0.00848657987793029,-0.23723222315311432,-0.25599920749664307,-0.9371153712272644,0.0003565606274319069,0.0015979544988118236,0.004243851798160351,0.9999895974745554,-0.05046139657497406,-0.0723508670926094,-0.2129576951265335,0.001419559121131897,-0.0044654905796051025,0.0020679235458374023
2025-09-18T12:35:18Z,0.001519757238310185,-0.00012619156369090566,0.003849029864296131,-0.23761285841464996,-0.2563118636608124,-0.9369335174560547,-6.455804247989235e-05,0.0007597556977917403,0.0019244652121571315,0.9999978718103067,-0.04564424976706505,-0.07959721237421036,-0.22516344487667084,0.0002807527780532837,-0.003301858901977539,0.001331329345703125
2025-09-18T12:35:18Z,-0.00015728270775137445,-0.0009712759843379454,-0.0007899448542928239,-0.23799167573451996,-0.2566263973712921,-0.9367512464523315,-0.00048566900129134424,-7.844952581727788e-05,-0.0003949341830834587,0.9999997877575109,-0.040827102959156036,-0.0868435651063919,-0.23736920952796936,-0.0008598566055297852,-0.0021363794803619385,0.0005944371223449707
2025-09-18T12:35:18Z,-0.001838207887326405,-0.001808646896058933,-0.00543032621920829,-0.23836871981620789,-0.2569427490234375,-0.9365686178207397,-0.0009068151460445979,-0.0009166446932338646,-0.0027143264237391757,0.9999954586767442,-0.036009956151247025,-0.09408991038799286,-0.2495749592781067,-0.002002239227294922,-0.0009690821170806885,-0.00014287233352661133
2025-09-18T12:35:18Z,-0.0037428534914711337,-0.0025145511908598586,-0.010511590604722447,-0.23883555829524994,-0.2574803829193115,-0.9363020062446594,-0.0012670915160659557,-0.0018647904469725075,-0.005253405052120588,0.999983627044902,-0.03717948868870735,-0.10066855698823929,-0.25988849997520447,-0.000869065523147583,-0.0006039440631866455,-0.002926468849182129
2025-09-18T12:35:18Z,-0.005685035715128503,-0.003276513458852009,-0.015840061533476835,-0.23926687240600586,-0.258016437292099,-0.9360442757606506,-0.0016607105916508868,-0.002829446315814715,-0.00791524900783346,0.9999632558848351,-0.04230225086212158,-0.09788583219051361,-0.26504620909690857,-0.0025354474782943726,0.0012767612934112549,-0.0038251876831054688
2025-09-18T12:35:18Z,-0.007667019343387661,-0.004042553121245878,-0.021118752495106963,-0.2397417575120926,-0.25852951407432556,-0.9357811808586121,-0.002061626317836468,-0.00381193611824011,-0.010551333390906753,0.9999348797003189,-0.04005742073059082,-0.09488287568092346,-0.259936660528183,-0.0019142478704452515,0.00250089168548584,-0.0027526021003723145
2025-09-18T12:35:18Z,-0.009597232524291613,-0.004820698476318974,-0.026299827544122502,-0.240187406539917,-0.259001225233078,-0.9355363845825195,-0.002473210048109285,-0.0047664747087102005,-0.013137780634978134,0.9998992214381427,-0.0383412167429924,-0.08645541965961456,-0.2511935234069824,-0.0010081380605697632,0.0042476654052734375,-0.004220902919769287
2025-09-18T12:35:18Z,-0.011318896859446868,-0.005536131530476495,-0.03125258780842432,-0.24049198627471924,-0.2594720423221588,-0.9353276491165161,-0.0028561120239359566,-0.005615453983876712,-0.015609685549161088,0.9998582242588677,-0.030801359564065933,-0.08970224857330322,-0.24137800931930542,-0.001276269555091858,0.004117876291275024,-0.0028214454650878906
2025-09-18T12:35:18Z,-0.013031061732782375,-0.006079988445465136,-0.03600277197560429,-0.24083538353443146,-0.2600509226322174,-0.935078501701355,-0.0031567132831686272,-0.00645967896490447,-0.01798014430946887,0.9998125170383202,-0.02391691692173481,-0.0731002688407898,-0.2281525433063507,-0.0001299828290939331,0.00846189260482788,-0.006031155586242676
2025-09-18T12:35:18Z,-0.014280425245290329,-0.006500130305311306,-0.04035881622089388,-0.2408454418182373,-0.2606501281261444,-0.9349091053009033,-0.003393388282213521,-0.007073082163236448,-0.020154215849813552,0.9997661359104151,-0.021980907768011093,-0.057216085493564606,-0.20451875030994415,0.0010621249675750732,0.008922040462493896,-0.0030139684677124023
2025-09-18T12:35:18Z,-0.015443522651656797,-0.006943398487111042,-0.04430205428856251,-0.2408810704946518,-0.26112908124923706,-0.9347662329673767,-0.0036417652262204043,-0.007642850585686102,-0.022121620595921623,0.9997194664777845,-0.023723669350147247,-0.04649755358695984,-0.1825973093509674,0.0024764537811279297,0.013382598757743835,-0.0059395432472229
2025-09-18T12:35:18Z,-0.016237848952328236,-0.007427730414398847,-0.0476902338125553,-0.24071764945983887,-0.2614401578903198,-0.9347214102745056,-0.003906253328590648,-0.008027925072890367,-0.023811762931785788,0.9996766153545669,-0.02457469142973423,-0.03247394412755966,-0.15177899599075317,-0.0005789101123809814,0.01290254294872284,-0.0046173930168151855
2025-09-18T12:35:18Z,-0.01676726288603071,-0.007948958506731732,-0.05045158291028533,-0.2404729276895523,-0.26157259941101074,-0.9347473382949829,-0.004184521804475119,-0.008280554776400167,-0.02518872091425631,0.9996396666162396,-0.027447957545518875,-0.026682084426283836,-0.12384048104286194,0.00048470497131347656,0.009290874004364014,-0.005679011344909668
2025-09-18T12:35:18Z,-0.017152819081407228,-0.008462314585017857,-0.0526896363859027,-0.24023310840129852,-0.2615930438041687,-0.9348032474517822,-0.00445543391337687,-0.00846179990554378,-0.026304291336980135,0.9996082379013184,-0.021640468388795853,-0.01700960099697113,-0.09874933958053589,0.00022223591804504395,0.007000923156738281,-0.006431639194488525
2025-09-18T12:35:18Z,-0.017170343040105836,-0.008743599436980522,-0.05402568670394492,-0.23989054560661316,-0.2616282105445862,-0.9348813891410828,-0.004601906499073999,-0.00846377646121819,-0.02697078680197753,0.9995897842996572,-0.01644142158329487,-0.008022338151931763,-0.07845855504274368,0.0007918328046798706,0.006197035312652588,-0.0054892897605896
2025-09-18T12:35:18Z,-0.01718827324630967,-0.009024823867984757,-0.0553617405900343,-0.2395479530096054,-0.26166290044784546,-0.9349595308303833,-0.004748359049883037,-0.008465764903600152,-0.027637267857897812,0.9995708501762145,-0.011242374777793884,0.000964924693107605,-0.058167774230241776,0.0013613998889923096,0.005392700433731079,-0.004546940326690674
2025-09-18T12:35:18Z,-0.01720656939528616,-0.009306092394403892,-0.05669779135305574,-0.23920533061027527,-0.26169708371162415,-0.9350376725196838,-0.004894843148874065,-0.008467743247806768,-0.028303728974617068,0.9995514865397981,-0.0060433279722929,0.009952187538146973,-0.03787699341773987,0.001930922269821167,0.004587829113006592,-0.003604590892791748
2025-09-18T12:35:18Z,-0.01700113272841091,-0.009464608949885761,-0.05742520071803893,-0.2388172298669815,-0.26171043515205383,-0.935133159160614,-0.004974199616425959,-0.008361012601081214,-0.028667087123181913,0.9995416515125285,-0.0021698148921132088,0.009343810379505157,-0.025655172765254974,-0.00032056868076324463,0.0016258955001831055,-0.00019913911819458008
2025-09-18T12:35:18Z,-0.016919959874464163,-0.00951209520413251,-0.057919027454243203,-0.23860791325569153,-0.2617758512496948,-0.9351682662963867,-0.004998822487882777,-0.008318528286824492,-0.028913884696580936,0.9995347626507025,0.003171982243657112,-0.0019299369305372238,-0.02223227359354496,-0.002725854516029358,-0.0018301308155059814,0.0013922452926635742
2025-09-18T12:35:18Z,-0.01706249736801852,-0.009395199791789464,-0.05840212175313993,-0.2386099100112915,-0.2619931995868683,-0.9351068735122681,-0.004944489702039185,-0.008390264635360427,-0.029155469358486404,0.9995273907227459,0.01348644495010376,-0.00943086575716734,-0.026850055903196335,-0.0026737451553344727,-0.004394710063934326,0.0001080632209777832
2025-09-18T12:35:18Z,-0.01724402250214778,-0.009072901810693527,-0.05903286675157903,-0.23860740661621094,-0.2624362111091614,-0.9349833130836487,-0.004788739310682733,-0.008484185542105203,-0.029471652407202408,0.9995181036329353,0.022303970530629158,-0.008256835862994194,-0.03364051133394241,-0.0011068135499954224,-0.003553420305252075,-0.0016757845878601074
2025-09-18T12:35:18Z,-0.017375719245549356,-0.00852272501768809,-0.05978706242372401,-0.2385236620903015,-0.2631204426288605,-0.9348123073577881,-0.0045189517442573365,-0.00855642740572731,-0.02985067632489177,0.9995074789423658,0.031237434595823288,-0.003288663923740387,-0.03855007141828537,-0.0005220025777816772,-0.0010988712310791016,-0.004368007183074951
2025-09-18T12:35:18Z,-0.01728014936570225,-0.007770495953796233,-0.06049153696441373,-0.23823991417884827,-0.2639830708503723,-0.9346414804458618,-0.004144596985993544,-0.008518460795659981,-0.03020624777204289,0.9994987762397555,0.03646065294742584,0.013215791434049606,-0.030339764431118965,0.0010273903608322144,0.0036663711071014404,-0.004826605319976807
2025-09-18T12:35:18Z,-0.01699428447865063,-0.007008209434730454,-0.06092666508158215,-0.23785126209259033,-0.26479506492614746,-0.9345107674598694,-0.0037611519875649516,-0.008386319625591058,-0.030427574893614286,0.9994946799111006,0.03925201669335365,0.02142840065062046,-0.009182220324873924,0.0012140870094299316,0.005112260580062866,-0.0032082796096801758
2025-09-18T12:35:18Z,-0.01647319028732028,-0.006172707433665215,-0.06092344712700711,-0.23736147582530975,-0.2655782997608185,-0.9344130158424377,-0.003335670620996098,-0.00813864438421047,-0.030430427435723408,0.9994981290134825,0.04453448951244354,0.027257028967142105,0.00540113914757967,8.095800876617432e-05,-0.00030422210693359375,0.002979576587677002
2025-09-18T12:35:18Z,-0.016009441582831768,-0.005223937501713801,-0.06075874632472048,-0.2369687706232071,-0.2664317786693573,-0.9342697262763977,-0.00285381462137444,-0.00792157967560058,-0.030352726647275646,0.9995037491645404,0.048484012484550476,0.011497477069497108,0.008020244538784027,-0.0005206316709518433,-0.0041155219078063965,0.005856335163116455
2025-09-18T12:35:18Z,-0.015829522444787796,-0.004277570388358369,-0.060623130299734374,-0.23683345317840576,-0.2672891914844513,-0.9340590834617615,-0.002377603311672126,-0.007846207338759535,-0.03028898689397873,0.999507500400748,0.04500177875161171,0.005376641638576984,0.005670343525707722,0.0026870518922805786,-0.002224057912826538,0.0020682215690612793
2025-09-18T12:35:18Z,-0.015643734033526518,-0.003473558654503715,-0.060506845603882434,-0.23668807744979858,-0.2680172026157379,-0.9338873028755188,-0.0019725301148237283,-0.007765662756784794,-0.030234260178609525,0.9995106731883089,0.03581470623612404,0.008433271199464798,0.0025854583363980055,0.001210629940032959,-0.0006258487701416016,0.00047528743743896484
2025-09-18T12:35:18Z,-0.015558794296712163,-0.002907270673132255,-0.06043979885122001,-0.2366245836019516,-0.2685331404209137,-0.9337551593780518,-0.001687981474651487,-0.0077318383010356664,-0.030203052383621004,0.9995123947681883,0.020878098905086517,0.004918648861348629,0.0013793776743113995,0.0009636729955673218,-0.00035858154296875,0.00020879507064819336
2025-09-18T12:35:18Z,-0.015516044568303538,-0.002784167135720646,-0.06049992063590849,-0.23656785488128662,-0.26866188645362854,-0.9337325096130371,-0.0016260459328352236,-0.0077122851872828985,-0.03023361376968871,0.999511753142864,0.013629863038659096,0.002708009211346507,-4.065921530127525e-06,-4.698336124420166e-05,-0.0004652738571166992,4.553794860839844e-05
2025-09-18T12:35:18Z,-0.015473316384676609,-0.0026610503758171707,-0.06056005055266815,-0.23651112616062164,-0.2687906324863434,-0.9337098598480225,-0.0015641030487590656,-0.0076927471281021936,-0.030264178061490628,0.9995110537844448,0.0063816276378929615,0.0004973695613443851,-0.0013875095173716545,-0.0010576695203781128,-0.0005719959735870361,-0.00011777877807617188
2025-09-18T12:35:18Z,-0.015430579003453966,-0.0025379060695984467,-0.06062018249231969,-0.23645439743995667,-0.2689193785190582,-0.933687150478363,-0.00150214504957832,-0.007673208530638196,-0.030294740497025924,0.9995103563548909,-0.0008666072972118855,-0.0017132700886577368,-0.002770952880382538,-0.00206834077835083,-0.0006786584854125977,-0.0002810955047607422
2025-09-18T12:35:18Z,-0.015375406492683964,-0.002558557215439931,-0.06078294668757793,-0.23635880649089813,-0.2689361572265625,-0.933706521987915,-0.001512252018603115,-0.007645199665203863,-0.030376044147236058,0.9995080951668889,-0.0036158054135739803,-0.003985784016549587,-0.007827254943549633,0.0009732544422149658,-0.004197269678115845,-0.0054972171783447266
2025-09-18T12:35:18Z,-0.01512016438126343,-0.0026478218929343734,-0.061070987853692346,-0.23604269325733185,-0.26891642808914185,-0.9337921738624573,-0.0015540682432263792,-0.007516060830682761,-0.030519847007894358,0.999504643963464,-0.0037307178135961294,0.017511531710624695,-0.01907142624258995,0.002472326159477234,-0.0020537078380584717,-0.006914675235748291
2025-09-18T12:35:18Z,-0.014772611293977035,-0.0027944567592133596,-0.061625626416020644,-0.23556816577911377,-0.2689020037651062,-0.9339161515235901,-0.0016240813203383352,-0.007339681259176237,-0.03079675437700305,0.9994973168729576,-0.010584120638668537,0.013509254902601242,-0.02626408077776432,0.0030172020196914673,0.0012413859367370605,-0.003136754035949707
2025-09-18T12:35:18Z,-0.014586089078223593,-0.003094451542136,-0.062149013872426793,-0.23525302112102509,-0.2687368392944336,-0.9340431094169617,-0.0017730262603495627,-0.0072413806432813045,-0.031057366761740597,0.9994897176212983,-0.015871461480855942,0.0032468102872371674,-0.021710284054279327,0.0009735524654388428,0.007370889186859131,0.0003902316093444824
2025-09-18T12:35:18Z,-0.014574379447860086,-0.0034348956270311413,-0.062493011747095456,-0.23514997959136963,-0.2684939205646515,-0.9341388940811157,-0.0019442230452383176,-0.007229903880295203,-0.031228039188359695,0.9994841706862987,-0.01521182432770729,0.002306385664269328,-0.007845615968108177,0.002168416976928711,0.0066238343715667725,-0.0010769367218017578
2025-09-18T12:35:18Z,-0.014449081473291905,-0.0036220557511639348,-0.06260292583644651,-0.23500384390354156,-0.26834285259246826,-0.9342191219329834,-0.002036191880274633,-0.007164249896748237,-0.03128240556155468,0.9994828612248176,-0.0033725015819072723,0.004358911421149969,0.001943063922226429,0.0008224993944168091,0.003948569297790527,0.002702057361602783
2025-09-18T12:35:18Z,-0.014420210057016216,-0.0035949356990792637,-0.06241385554658529,-0.23502814769744873,-0.26832640171051025,-0.9342176914215088,-0.0020215112526852947,-0.007150437100930789,-0.031188046004310743,0.9994859719421509,0.00775594636797905,-0.00454942649230361,0.013626825995743275,0.00025644898414611816,0.0036392807960510254,0.005598545074462891
2025-09-18T12:35:18Z,-0.01460362821456714,-0.0033287310474520294,-0.062001035503140595,-0.23531056940555573,-0.2684844732284546,-0.9341011643409729,-0.0018898421099357748,-0.00724664411634516,-0.030982535814332687,0.9994918893023444,0.020667418837547302,-0.015826398506760597,0.023573782294988632,-0.000359460711479187,-0.0011444389820098877,0.005030393600463867
2025-09-18T12:35:19Z,-0.014956388352844437,-0.002886528440706534,-0.061403928701007277,-0.23580040037631989,-0.2687666118144989,-0.933896541595459,-0.0016720999616299315,-0.007430289447967785,-0.030685462244355758,0.9995001021476916,0.027323415502905846,-0.019140051677823067,0.025920899584889412,0.0012960731983184814,-0.0018572211265563965,-0.00010687112808227539
2025-09-18T12:35:19Z,-0.01526751507336456,-0.002406594066130518,-0.0608183958420666,-0.23624788224697113,-0.2690865099430084,-0.9336912631988525,-0.0014348035137514968,-0.007593563584845236,-0.03039442034158313,0.9995081704830096,0.024039417505264282,-0.01083273533731699,0.027547739446163177,0.0010046064853668213,6.508827209472656e-05,-0.004049420356750488
2025-09-18T12:35:19Z,-0.015427865773214838,-0.0020026496840008694,-0.06017630558336674,-0.2365700751543045,-0.2693224847316742,-0.9335416555404663,-0.0012329021296000223,-0.00768023806196307,-0.030074980575975973,0.9995174423235863,0.014537393115460873,-0.007783359847962856,0.03224962204694748,0.000459134578704834,0.0011466443538665771,-0.005367875099182129
2025-09-18T12:35:19Z,-0.015510277601292095,-0.0019352523460152487,-0.05938688264432698,-0.23686067759990692,-0.26921015977859497,-0.933500349521637,-0.00119741096603618,-0.0077229121297994726,-0.02968067194271262,0.999528837074327,0.002839408814907074,0.0022586220875382423,0.03921954333782196,-0.0005426704883575439,-0.0008486509323120117,-0.00441896915435791
2025-09-18T12:35:19Z,-0.015256772852096517,-0.0019740927166544435,-0.058556078157614565,-0.23684923350811005,-0.2689889073371887,-0.9335670471191406,-0.0012099045701322352,-0.007596146027244083,-0.029265465591635,0.999542027757603,0.0010671328054741025,0.007785761263221502,0.03655611351132393,-0.0004306286573410034,-0.0019362568855285645,-0.003409743309020996
2025-09-18T12:35:19Z,-0.015003234037496602,-0.0020126738439132296,-0.057725260151350696,-0.23683759570121765,-0.26876774430274963,-0.9336336851119995,-0.0012223735916243046,-0.007469378187070282,-0.02885025178980878,0.9995550397341784,-0.0007051433203741908,0.013312900438904762,0.0338926836848259,-0.0003187805414199829,-0.003023803234100342,-0.0024005770683288574
2025-09-18T12:35:19Z,-0.014749696095925994,-0.0020510422326718057,-0.05689444442597072,-0.2368258237838745,-0.2685466408729553,-0.9337003231048584,-0.001234841739404602,-0.007342624875031378,-0.028435036600713125,0.9995679324667006,-0.0024774193298071623,0.018840039148926735,0.031229253858327866,-0.00020708143711090088,-0.004111289978027344,-0.0013914108276367188
2025-09-18T12:35:19Z,-0.01443673865697394,-0.0021532598534337232,-0.056254917660156493,-0.2367068976163864,-0.268308162689209,-0.9337990283966064,-0.0012791815226916765,-0.007185169045458738,-0.02811523224029068,0.999578064928998,-0.006174423731863499,0.013388240709900856,0.028235452249646187,-0.0008556991815567017,-0.0021987855434417725,0.0015297532081604004
2025-09-18T12:35:19Z,-0.014141848082918474,-0.002395001846190692,-0.055745289466113616,-0.23657014966011047,-0.2679678201675415,-0.9339313507080078,-0.001394063601885297,-0.007034741123272367,-0.0278598546297807,0.9995861318278656,-0.017786506563425064,0.0075935181230306625,0.02038152888417244,0.00010134279727935791,-0.0016440153121948242,0.0015192031860351562
2025-09-18T12:35:19Z,-0.014003427223924812,-0.002814240081721173,-0.05536868962937616,-0.2365441769361496,-0.26749077439308167,-0.9340746998786926,-0.0016003571960253313,-0.006960017167991832,-0.027670253884560275,0.9995916096278504,-0.02285534143447876,0.004133124835789204,0.012867989018559456,0.0010074228048324585,-0.003054708242416382,-0.0006758570671081543
2025-09-18T12:35:19Z,-0.013908398133837594,-0.003312119981228462,-0.0551264973078923,-0.23652267456054688,-0.2669699490070343,-0.9342291355133057,-0.001847044390681103,-0.006905852475661172,-0.027547542213149555,0.9995949391655603,-0.01947881281375885,0.007225049193948507,0.005048763006925583,0.00016641616821289062,-0.0041786134243011475,-0.002297818660736084
2025-09-18T12:35:19Z,-0.013782203239020165,-0.0036757742366713307,-0.055120286801566463,-0.2364078015089035,-0.26662763953208923,-0.9343559741973877,-0.0020270382966897523,-0.006837773456466348,-0.02754329247637948,0.9995952109704593,-0.013774922117590904,0.0047038220800459385,-0.0011262809857726097,4.303455352783203e-05,-0.0043434202671051025,-0.0025358200073242188
2025-09-18T12:35:19Z,-0.013688718455204446,-0.0038012763992533406,-0.05524223321938805,-0.23628796637058258,-0.26653721928596497,-0.9344120621681213,-0.0020888905214723574,-0.0067891928109514174,-0.02760390374856823,0.9995937200989244,-0.004405980929732323,0.0014924223069101572,-0.0053598033264279366,-0.0005623400211334229,-0.0029277801513671875,-0.0015360116958618164
