timestamp,attitude_roll,attitude_pitch,attitude_yaw,gravity_x,gravity_y,gravity_z,quaternion_x,quaternion_y,quaternion_z,quaternion_w,rotation_rate_x,rotation_rate_y,rotation_rate_z,user_acceleration_x,user_acceleration_y,user_acceleration_z
2025-09-16T01:58:02Z,-0.11590538398947241,0.3235050932119718,-0.3192638652217554,-0.10964714735746384,-0.31789183616638184,-0.9417654871940613,0.14964709006709762,-0.08199381679950153,-0.16582591941903718,0.9712797617675002,-0.013008296489715576,0.016144677996635437,0.029255501925945282,0.0010204911231994629,-0.00022220611572265625,-0.0012485384941101074
2025-09-16T01:58:02Z,-0.11560346374684016,0.3231145944655717,-0.3186576141821734,-0.10937711596488953,-0.3175215721130371,-0.9419218301773071,0.14950669153130622,-0.08177308836117335,-0.16550288216457817,0.9713750831813736,-0.0033400515094399452,0.02631382644176483,0.03164688125252724,0.002339988946914673,0.0033029913902282715,-0.0012056827545166016
2025-09-16T01:58:02Z,-0.11536986325175921,0.32289657289569207,-0.3179026411573818,-0.10916504263877869,-0.31731483340263367,-0.942016065120697,0.1494506234098192,-0.08158718399233532,-0.16511537650621694,0.9714652334563512,-0.0012630883138626814,0.023791834712028503,0.04002528265118599,0.0017874166369438171,0.005112171173095703,-7.325410842895508e-05
2025-09-16T01:58:02Z,-0.1153348347376696,0.3226805058933851,-0.31694352542050774,-0.10913993418216705,-0.3171099126338959,-0.9420880079269409,0.14938732412284667,-0.08148266150601378,-0.16464351025734697,0.9715639445237735,-0.0024372944608330727,0.017248079180717468,0.04723633453249931,0.0016615763306617737,0.005939841270446777,0.0019145011901855469
2025-09-16T01:58:02Z,-0.11532543035270322,0.3225472147566394,-0.3158690523830879,-0.1091359406709671,-0.31698349118232727,-0.942130982875824,0.14936689895331992,-0.08138810500892513,-0.16411876105793483,0.9716637892366855,0.0012328317388892174,0.014199478551745415,0.05495912581682205,0.002667441964149475,0.008382469415664673,0.0007711052894592285
2025-09-16T01:58:02Z,-0.1154531883494786,0.32252250692635326,-0.3140389777103963,-0.10925720632076263,-0.31696006655693054,-0.9421248435974121,0.14941884283180792,-0.0813116844256663,-0.16323874720415235,0.9718104145795987,0.009402365423738956,0.026164069771766663,0.08494728058576584,0.003988787531852722,0.009800910949707031,-0.004211127758026123
2025-09-16T01:58:02Z,-0.11558091053631203,0.32249755510083294,-0.3122089460325608,-0.10937844961881638,-0.3169364035129547,-0.9421187043190002,0.1494706526684326,-0.08123520408371819,-0.16235861325087697,0.9719562651996495,0.01757189631462097,0.03812865912914276,0.11493542790412903,0.005310088396072388,0.0112190842628479,-0.009193360805511475
2025-09-16T01:58:02Z,-0.11541883242060501,0.3226009181832455,-0.3094137198699288,-0.10922197252511978,-0.31703442335128784,-0.9421038627624512,0.14964747919464444,-0.08095481075195753,-0.16098954237019958,0.9721801636780151,0.028113078325986862,0.06418563425540924,0.14203760027885437,0.0052866339683532715,0.010662168264389038,-0.01014798879623413
2025-09-16T01:58:02Z,-0.11497550048657623,0.32277146213227614,-0.3061189682064865,-0.10879809409379959,-0.31719616055488586,-0.9420984983444214,0.14989912584476933,-0.0805046449440972,-0.15935726265237457,0.9724476971779487,0.033478278666734695,0.0833466500043869,0.16195835173130035,0.0038745105266571045,0.00835871696472168,-0.006369233131408691
2025-09-16T01:58:02Z,-0.1143892081910733,0.32287225914927414,-0.3023340159361698,-0.10824207961559296,-0.3172917664051056,-0.9421303272247314,0.15014654980054382,-0.07994268570295862,-0.1574742506055928,0.9727625468539841,0.03233473747968674,0.09318424016237259,0.18881842494010925,0.0032119378447532654,0.013198941946029663,-0.004503071308135986
2025-09-16T01:58:02Z,-0.11373444150751387,0.32301698226654285,-0.2978824100770022,-0.10761997103691101,-0.3174290060997009,-0.9421553611755371,0.1504455653738204,-0.07929963396257975,-0.15526175337516224,0.9731245647725002,0.04129493609070778,0.10853073000907898,0.22399437427520752,0.001717105507850647,0.017401516437530518,-0.005468249320983887
2025-09-16T01:58:02Z,-0.11300402216135755,0.3231715767774005,-0.2927196616632633,-0.10692624002695084,-0.317575603723526,-0.9421849846839905,0.15078099930954802,-0.07856588338611316,-0.15269666407049212,0.973537949810047,0.04659128189086914,0.12288960069417953,0.25907933712005615,0.0016670897603034973,0.014892637729644775,-0.0053817033767700195
2025-09-16T01:58:02Z,-0.11223992677934105,0.3234145259892731,-0.2869058735816911,-0.10619764029979706,-0.3178059756755829,-0.9421896934509277,0.15118461654956947,-0.07777116105247162,-0.14981220942097515,0.9739872261782476,0.050667084753513336,0.1320534348487854,0.27842724323272705,0.0007875710725784302,0.010230451822280884,-0.0033063888549804688
2025-09-16T01:58:02Z,-0.11164311818913117,0.32365111712467715,-0.28079167199739596,-0.10562694072723389,-0.3180302679538727,-0.9421781897544861,0.15158104593762314,-0.07703309215864934,-0.14679253518469762,0.9744439296805296,0.05435950681567192,0.12453124672174454,0.28970596194267273,-0.0005352646112442017,0.005572408437728882,0.0014590620994567871
2025-09-16T01:58:02Z,-0.11117710197551968,0.32383539423938235,-0.27447122348091774,-0.10518135130405426,-0.31820496916770935,-0.9421690106391907,0.1519472658406668,-0.07633811999139717,-0.14367994271483367,0.9749053891077919,0.05579425394535065,0.11956366151571274,0.29736289381980896,-0.000355549156665802,0.0038500428199768066,0.003159046173095703
2025-09-16T01:58:02Z,-0.11089502044815365,0.3240854514857457,-0.2680459984215787,-0.10490676760673523,-0.31844204664230347,-0.9421195387840271,0.15233378868577752,-0.07572736276298195,-0.14052982672190906,0.9753518116645622,0.06002277508378029,0.11377433687448502,0.297370046377182,-0.0006308406591415405,-0.0009692907333374023,0.0014579296112060547
2025-09-16T01:58:02Z,-0.11065393238696038,0.32458639078133283,-0.26167949028933823,-0.10466200858354568,-0.31891685724258423,-0.9419861435890198,0.15283563293981448,-0.07515442309504317,-0.13741422424263008,0.9757614184795609,0.06581003218889236,0.10885895788669586,0.29050105810165405,0.00022077560424804688,-0.0015170574188232422,0.0015142560005187988
2025-09-16T01:58:02Z,-0.1106800271418765,0.3252025333353784,-0.25548490386185096,-0.1046648621559143,-0.31950077414512634,-0.9417879581451416,0.15336734804803862,-0.07472935970920301,-0.1344036873611576,0.9761298965579215,0.0704197958111763,0.09889072179794312,0.2806698977947235,-0.000654168426990509,-0.0033129453659057617,0.0034546256065368652
2025-09-16T01:58:02Z,-0.11076564736189345,0.32594347269289936,-0.24949725437059814,-0.10471930354833603,-0.3202027678489685,-0.941543459892273,0.15394734568137114,-0.07435379388233747,-0.1314999211101646,0.9764627275711236,0.07228931039571762,0.08955729007720947,0.26491209864616394,-0.0007690787315368652,-0.006837904453277588,0.0030509233474731445
2025-09-16T01:58:02Z,-0.11106934020087775,0.326929136393023,-0.24456115039469908,-0.10497020184993744,-0.32113638520240784,-0.9411974549293518,0.15459323171091943,-0.07417675009894781,-0.12913000256565682,0.9766903986016938,0.07316631823778152,0.07802622020244598,0.24640004336833954,-0.0010135248303413391,-0.006083488464355469,0.002971172332763672
2025-09-16T01:58:02Z,-0.11137828488636149,0.32791338837454037,-0.23962306663421903,-0.10522579401731491,-0.32206836342811584,-0.9408504366874695,0.1552381794816713,-0.07399925820243392,-0.12675928741179654,0.9769121100794447,0.07404331862926483,0.0664951503276825,0.22788798809051514,-0.001253277063369751,-0.005330711603164673,0.0028904080390930176
2025-09-16T01:58:02Z,-0.1116924408263252,0.3288962108762321,-0.23468303225222611,-0.10548602789640427,-0.32299864292144775,-0.9405022859573364,0.15588218901074763,-0.07382130329164553,-0.12438780545088499,0.9771278619701343,0.07492032647132874,0.054964080452919006,0.20937591791152954,-0.0014883801341056824,-0.004579633474349976,0.0028085708618164062
2025-09-16T01:58:02Z,-0.1120118160296953,0.3298774248880439,-0.2297409756338754,-0.1057509183883667,-0.323927104473114,-0.940153181552887,0.15652520068498688,-0.07364289274867457,-0.12201555654595447,0.9773375350645576,0.07579732686281204,0.04343301057815552,0.19086384773254395,-0.0017188340425491333,-0.0038303136825561523,0.0027257204055786133
2025-09-16T01:58:02Z,-0.11246266577700237,0.3310999673681154,-0.2255865737412942,-0.10613025724887848,-0.32508349418640137,-0.9397111535072327,0.15724958082987162,-0.07360010929324293,-0.12004285201973908,0.9774687861741219,0.07805448025465012,0.043567098677158356,0.178292378783226,-0.0003266185522079468,-0.007734149694442749,-0.0015422701835632324
2025-09-16T01:58:02Z,-0.1122963307509691,0.33237885838285036,-0.22223003609772024,-0.10592727363109589,-0.32629266381263733,-0.9393149018287659,0.15800917836383616,-0.07331872406381212,-0.11841262699149599,0.9775662651641844,0.0753384381532669,0.0531202107667923,0.16065175831317902,0.0014537125825881958,-0.0055127739906311035,-0.001449286937713623
2025-09-16T01:58:02Z,-0.11213446863222097,0.33365825602066573,-0.21887223586769916,-0.10572843253612518,-0.3275017738342285,-0.9389164447784424,0.1587682397389087,-0.07303709234904991,-0.11678200338464167,0.9776605259594277,0.0726223886013031,0.06267331540584564,0.14301113784313202,0.003238193690776825,-0.003291487693786621,-0.0013584494590759277
2025-09-16T01:58:02Z,-0.11197711372302956,0.3349381997332374,-0.21551315826503759,-0.10553375631570816,-0.3287108540534973,-0.9385157227516174,0.15952679473170953,-0.07275523653492434,-0.1151509960318428,0.9777515089381289,0.06990634649991989,0.07222642749547958,0.12537051737308502,0.005026869475841522,-0.001070171594619751,-0.0012698769569396973
2025-09-16T01:58:02Z,-0.11167093474706946,0.33576547378779603,-0.21298043053753182,-0.10521606355905533,-0.32949206233024597,-0.9382774233818054,0.16004154199138693,-0.07244290337591383,-0.11390358283354612,0.9778366867559042,0.061168912798166275,0.058031413704156876,0.11989551782608032,0.0029773488640785217,-0.0010709166526794434,0.0027875900268554688
2025-09-16T01:58:02Z,-0.11136688872927417,0.33659347981144727,-0.2104472503253099,-0.10490041971206665,-0.33027371764183044,-0.9380379319190979,0.16055597648957023,-0.0721304282964372,-0.1126559514455707,0.9779200170792618,0.05243147909641266,0.04383639991283417,0.11442051827907562,0.0009299144148826599,-0.0010712146759033203,0.006843924522399902
2025-09-16T01:58:02Z,-0.11106498723286201,0.3374221648483528,-0.20791359194415265,-0.10458684712648392,-0.33105579018592834,-0.9377972483634949,0.16107008331654904,-0.07181781872994898,-0.11140810179943264,0.9780014403035994,0.04369404911994934,0.029641389846801758,0.10894551128149033,-0.0011154711246490479,-0.0010710060596466064,0.010899007320404053
2025-09-16T01:58:02Z,-0.11138562324875856,0.33809362687029015,-0.2055361600440762,-0.10486280173063278,-0.3316892981529236,-0.9375425577163696,0.16146668248342236,-0.07181388600382946,-0.11028383541590055,0.9780637672461148,0.04853983223438263,0.011956300586462021,0.10365240275859833,-0.0017810985445976257,-0.001571357250213623,0.007623434066772461
2025-09-16T01:58:02Z,-0.11195444968927924,0.3388208630579502,-0.20330783320877852,-0.10536910593509674,-0.33237528800964355,-0.9372428059577942,0.1618718883168874,-0.07194504972608091,-0.1092537251129456,0.9781027997860074,0.04916698485612869,0.002737315371632576,0.09586077183485031,-0.0006310194730758667,-0.002679497003555298,0.004365146160125732
2025-09-16T01:58:02Z,-0.11266386578916543,0.3394926702651654,-0.20124077751684283,-0.1060088500380516,-0.3330088257789612,-0.9369457364082336,0.1622369645056302,-0.07215471886037454,-0.1083130695377838,0.97813147754008,0.044966086745262146,-0.0031988793052732944,0.08576078712940216,0.0006792470812797546,-0.004540890455245972,-0.0008664131164550781
2025-09-16T01:58:02Z,-0.11311766810253,0.3399661010070321,-0.20033372325360668,-0.10641621798276901,-0.3334551751613617,-0.9367407560348511,0.16247718534725225,-0.07232412314447371,-0.10791539232820042,0.978123053363654,0.040702689439058304,-0.00730270566418767,0.06605209410190582,0.0005603432655334473,-0.005525469779968262,0.0003765225410461426
2025-09-16T01:58:02Z,-0.11357199190248722,0.34043916273991226,-0.1994262830341478,-0.10682390630245209,-0.33390113711357117,-0.9365354776382446,0.16271737641225698,-0.07249350504260563,-0.10751768504238107,0.9781143908030608,0.03643929213285446,-0.011406531557440758,0.04634339362382889,0.00044173747301101685,-0.006510525941848755,0.0016192197799682617
2025-09-16T01:58:02Z,-0.11402681512220239,0.3409117170311829,-0.19851840102598634,-0.10723188519477844,-0.3343465328216553,-0.9363299012184143,0.16295749300575446,-0.07266285705283246,-0.10711993264220765,0.9781053706662164,0.03217589482665062,-0.015510357916355133,0.026634695008397102,0.0003234371542930603,-0.0074961185455322266,0.0028615593910217285
2025-09-16T01:58:02Z,-0.11448219755232655,0.3413840112890837,-0.1976102009883846,-0.10764020681381226,-0.3347916007041931,-0.9361240267753601,0.16319760960781354,-0.07283220161248435,-0.10672217265449152,0.9780962313287281,0.027912497520446777,-0.01961418427526951,0.006925996392965317,0.0002054944634437561,-0.008482038974761963,0.004103660583496094
2025-09-16T01:58:02Z,-0.11493810364846724,0.3418558745305643,-0.19670162976650202,-0.10804885625839233,-0.33523622155189514,-0.9359177947044373,0.16343766663095424,-0.07300152375192717,-0.10632439004111462,0.9780868535985119,0.023649100214242935,-0.023718010634183884,-0.012782704085111618,8.785724639892578e-05,-0.009468406438827515,0.005345344543457031
2025-09-16T01:58:02Z,-0.11526847824808416,0.3424876289646705,-0.19705347452768845,-0.10833366960287094,-0.33583134412765503,-0.9356715083122253,0.16371676862888979,-0.07321931956209703,-0.1065360071072357,0.9780008989296717,0.026597648859024048,-0.03051341511309147,-0.02071687951683998,-0.0009929537773132324,-0.004186719655990601,0.004272282123565674
2025-09-16T01:58:02Z,-0.11567926574276272,0.3432337771654618,-0.19757542769366426,-0.1086890697479248,-0.3365340530872345,-0.9353777170181274,0.16404128197823079,-0.07349544602611216,-0.10683973996138871,0.9778926654821258,0.028498006984591484,-0.025428839027881622,-0.021688329055905342,-0.000312216579914093,-0.0024375319480895996,0.00150984525680542
2025-09-16T01:58:02Z,-0.11608976987017892,0.3439801163604645,-0.19809720278162884,-0.1090439185500145,-0.33723676204681396,-0.9350833296775818,0.16436573574009292,-0.07377155752049346,-0.1071434427393056,0.9777841936504125,0.03039836324751377,-0.020344262942671776,-0.022659776732325554,0.0003679320216178894,-0.0006883740425109863,-0.0012533068656921387
2025-09-16T01:58:02Z,-0.11649996176966114,0.3447266859553457,-0.19861878896506996,-0.10939817875623703,-0.3379395008087158,-0.934788167476654,0.16469015972533835,-0.07404764662890773,-0.10744711537250276,0.9776754238299297,0.03229872137308121,-0.015259687788784504,-0.023631226271390915,0.0010475292801856995,0.001060783863067627,-0.004017174243927002
2025-09-16T01:58:02Z,-0.11659419917232718,0.3454785584510744,-0.19904486789812473,-0.10945668071508408,-0.3386470675468445,-0.9345252513885498,0.1650375834681719,-0.07416179389286186,-0.10767823030724037,0.9775827114300655,0.031006217002868652,-0.011845696717500687,-0.02129494957625866,0.000971481204032898,0.0018438398838043213,-0.0020900368690490723
2025-09-16T01:58:02Z,-0.11663162969441027,0.3462352399767607,-0.19940460620767414,-0.10946180671453476,-0.339358925819397,-0.9342663884162903,0.16539280853921845,-0.07424302598431848,-0.10787229197051292,0.9774951676057306,0.03312821686267853,-0.003950370475649834,-0.018564296886324883,0.00022685527801513672,-2.4139881134033203e-05,-0.0013800859451293945
2025-09-16T01:58:02Z,-0.11664908482171875,0.3469500805503011,-0.1997297010116626,-0.1094498559832573,-0.3400312662124634,-0.9340232610702515,0.16572988556097332,-0.07430991719947146,-0.10804692193135303,0.9774136065756568,0.03187640383839607,-0.009028025902807713,-0.021175609901547432,0.0005833059549331665,-0.0009066164493560791,0.0007880926132202148
2025-09-16T01:58:02Z,-0.11672658252657787,0.3475707592807388,-0.20011670046063543,-0.10949763655662537,-0.3406148850917816,-0.933804988861084,0.16601525037162446,-0.07440722934296959,-0.10825486656403545,0.9773347490830269,0.03278413042426109,-0.012302996590733528,-0.020931202918291092,0.0020262300968170166,0.0007329583168029785,0.0016580820083618164
2025-09-16T01:58:02Z,-0.11691243145176293,0.348221372843813,-0.20048955401961763,-0.1096453070640564,-0.3412265181541443,-0.933564305305481,0.1663098673053525,-0.07455772694282349,-0.1084654864864747,0.9772498684440651,0.03224821761250496,-0.019325148314237595,-0.019292613491415977,0.00026284903287887573,0.0013654530048370361,0.001370847225189209
2025-09-16T01:58:02Z,-0.11718887060582828,0.34886279605625115,-0.20081346864705119,-0.10987776517868042,-0.341829389333725,-0.9333164095878601,0.16659682392701633,-0.0747480987231574,-0.10865958089558206,0.9771648875830707,0.028012672439217567,-0.01948295719921589,-0.018535053357481956,0.00043386220932006836,0.0013111233711242676,2.7000904083251953e-05
2025-09-16T01:58:03Z,-0.11737149765919075,0.3493830587321037,-0.20115031691549634,-0.11002737283706665,-0.34231826663017273,-0.9331195950508118,0.16682900174673523,-0.07488842158885423,-0.10884978668088187,0.9770933818471699,0.023849226534366608,-0.012402202934026718,-0.016752302646636963,0.0015017837285995483,0.003818124532699585,-0.0013342499732971191
2025-09-16T01:58:03Z,-0.11751450543714108,0.3498170616111985,-0.2014214009528183,-0.11014338582754135,-0.3427260220050812,-0.9329562187194824,0.16702352736899423,-0.075000143100281,-0.10900285089752108,0.9770344953729336,0.013544348999857903,-0.008874497376382351,-0.010204286314547062,0.0016322359442710876,0.004539400339126587,-0.0006862282752990723
2025-09-16T01:58:03Z,-0.11765590883073125,0.35002773068680393,-0.20156540387062735,-0.11026682704687119,-0.3429239094257355,-0.9328688979148865,0.16711354572329193,-0.07509059232440554,-0.10908923348072415,0.9770025076190428,0.010699630714952946,-0.008653438650071621,-0.005722177214920521,0.0011993125081062317,0.0032443106174468994,-0.0006827116012573242
2025-09-16T01:58:03Z,-0.11779730787694741,0.35023847088171345,-0.20170940977240773,-0.11039023846387863,-0.34312185645103455,-0.9327815175056458,0.16720357897017976,-0.07518104901622637,-0.1091756235145025,0.9769705198565917,0.007854912430047989,-0.008432380855083466,-0.0012400676496326923,0.000766359269618988,0.0019492805004119873,-0.0006791949272155762
2025-09-16T01:58:03Z,-0.11795644470720142,0.3502689717628282,-0.20176025089590485,-0.11053744703531265,-0.3431505262851715,-0.9327535629272461,0.167207908863039,-0.07526438878598564,-0.10921437570798055,0.9769590312331599,0.008228955790400505,-0.008563686162233353,-0.0038703910540789366,0.0009126067161560059,-0.0002766847610473633,0.00014507770538330078
2025-09-16T01:58:03Z,-0.11806503324910891,0.3503913023700674,-0.2019248520303076,-0.11063379049301147,-0.3432654142379761,-0.9326998591423035,0.16725565862241365,-0.07533662491840268,-0.109306318146626,0.9769350241179481,0.006389472167938948,-0.010820833966135979,-0.009605682455003262,0.0008599460124969482,-0.0024483203887939453,0.002328336238861084
2025-09-16T01:58:03Z,-0.11823298394647688,0.35051035404433667,-0.20233394628567508,-0.11078561097383499,-0.3433772325515747,-0.9326406717300415,0.16728932972001606,-0.07545817520014834,-0.1095225931542228,0.976895615350377,0.0040347520262002945,-0.018694967031478882,-0.02348284050822258,0.0005394965410232544,-0.0030879080295562744,0.00302731990814209
2025-09-16T01:58:03Z,-0.11852016680692583,0.35066221752792226,-0.20290852993776765,-0.11104727536439896,-0.3435198664665222,-0.9325570464134216,0.16732620946281315,-0.07565328134565191,-0.10983032742281172,0.9768396506074334,0.0040173339657485485,-0.030305013060569763,-0.03413892537355423,-0.00036988407373428345,-0.0027920901775360107,0.002880394458770752
2025-09-16T01:58:03Z,-0.11879872041750784,0.3508623932299901,-0.203810664640292,-0.11129888892173767,-0.3437078595161438,-0.9324577450752258,0.16737468295434696,-0.0758737700559053,-0.11029828339366679,0.9767615076479172,0.00223931553773582,-0.031242916360497475,-0.04973386228084564,0.001097157597541809,-0.005445629358291626,0.0011565089225769043
2025-09-16T01:58:03Z,-0.11913840643776345,0.3510586027843844,-0.20495935111251595,-0.1116076111793518,-0.34389209747314453,-0.9323529005050659,0.1674082719149541,-0.07614462252208212,-0.11089165171900521,0.9766674849579521,0.0008680435130372643,-0.039462439715862274,-0.05799368768930435,-0.0010101422667503357,-0.004041165113449097,0.004219472408294678
2025-09-16T01:58:03Z,-0.11943117945657201,0.3512177772803418,-0.20636980874861635,-0.1118740513920784,-0.3440415561199188,-0.9322658181190491,0.16741608486386372,-0.07641285257005938,-0.11160811473667609,0.9765636052729517,-0.005765608977526426,-0.04742483049631119,-0.0711917132139206,-0.002481691539287567,-0.005715668201446533,0.003405451774597168
2025-09-16T01:58:03Z,-0.11984807947104122,0.35127780836055617,-0.20808941224607233,-0.11226022988557816,-0.34409791231155396,-0.9321986436843872,0.1673562566119739,-0.07676306564646576,-0.11248382556760567,0.976445893145083,-0.011908916756510735,-0.05120391398668289,-0.09151449054479599,-0.0006877854466438293,-0.007772654294967651,0.0009944438934326172
2025-09-16T01:58:03Z,-0.12003197748141067,0.3513670004461615,-0.21049631530298749,-0.1124279797077179,-0.3441816568374634,-0.9321475028991699,0.1672969385359358,-0.07705832379643889,-0.11367602863049449,0.9762947367798853,-0.01554587110877037,-0.055772826075553894,-0.12818367779254913,0.00549490749835968,-0.015642136335372925,-0.001858830451965332
2025-09-16T01:58:03Z,-0.1200653885056187,0.3514328324703626,-0.2136885043041473,-0.11245641112327576,-0.34424346685409546,-0.932121217250824,0.1672040136675441,-0.07734466223953869,-0.11523825773213477,0.9761048294566563,-0.01947869546711445,-0.05588245764374733,-0.1665888875722885,0.008044011890888214,-0.016514569520950317,-4.2378902435302734e-05
2025-09-16T01:58:03Z,-0.11983136481225391,0.3515298384428961,-0.21768371643138007,-0.11223427951335907,-0.34433454275131226,-0.9321143627166748,0.1671103255741725,-0.07756899604013605,-0.11717027089357819,0.9758730720101655,-0.02310490608215332,-0.06044460088014603,-0.20333656668663025,0.0036333873867988586,-0.01141461730003357,0.005317091941833496
2025-09-16T01:58:03Z,-0.11975734134522892,0.35152390841166065,-0.22234617325620015,-0.11216552555561066,-0.34432896971702576,-0.932124674320221,0.1669305695382998,-0.07792196216434955,-0.11943864613323382,0.9756006353298987,-0.035508375614881516,-0.08977071940898895,-0.2248038798570633,-0.0012892127269878983,-0.006131710484623909,0.0078022968955338
2025-09-16T01:58:03Z,-0.12045674208126154,0.3514312546904736,-0.22819918876327452,-0.11282125860452652,-0.34424200654029846,-0.9320777058601379,0.1666137471711041,-0.0787464897053203,-0.12234971269536092,0.975227801191965,-0.04165481775999069,-0.11101461946964264,-0.24569648504257202,-0.0012942776083946228,-0.006499111652374268,0.007122159004211426
2025-09-16T01:58:03Z,-0.1211566649260571,0.35134244170611034,-0.23405208883024595,-0.11347730457782745,-0.3441586196422577,-0.9320288300514221,0.16629536103923992,-0.0795702703910834,-0.12525963622355143,0.9748457892464686,-0.04780125990509987,-0.13225851953029633,-0.26658910512924194,-0.0012990236282348633,-0.0068628787994384766,0.006440103054046631
2025-09-16T01:58:03Z,-0.12185711939683747,0.3512574982542994,-0.23990485125857045,-0.11413367837667465,-0.34407883882522583,-0.9319781064987183,0.16597542603529739,-0.08039331168933472,-0.12816837946492898,0.9744545995362116,-0.053947702050209045,-0.15350240468978882,-0.2874816954135895,-0.001303456723690033,-0.007223010063171387,0.0057561397552490234
2025-09-16T01:58:03Z,-0.12283750529835645,0.35104323061057796,-0.2462949344751161,-0.1150563508272171,-0.3438776731491089,-0.9319389462471008,0.16554871964755993,-0.08138886782114627,-0.13135823513874068,0.9740196350240772,-0.059037771075963974,-0.16998590528964996,-0.309852659702301,-0.0009819045662879944,-0.006780862808227539,0.004732668399810791
2025-09-16T01:58:03Z,-0.1239658809622872,0.3507888516381842,-0.2532595177873866,-0.1161186695098877,-0.3436387777328491,-0.9318953156471252,0.1650640642877899,-0.08249968498132816,-0.13483756113338596,0.973532958684857,-0.06382882595062256,-0.18547509610652924,-0.3343318700790405,-0.0010704249143600464,-0.006476074457168579,0.002776205539703369
2025-09-16T01:58:03Z,-0.12519636421478222,0.3504697338457487,-0.2607409453068882,-0.11727894842624664,-0.34333908557891846,-0.9318604469299316,0.1645133724031561,-0.08369653268241686,-0.13857352065504863,0.9729992574118965,-0.06796149909496307,-0.18968115746974945,-0.3540022075176239,-0.0006003156304359436,-0.0043006837368011475,-0.0003279447555541992
2025-09-16T01:58:03Z,-0.12633981345038747,0.35013045357458034,-0.2685246478566225,-0.11835907399654388,-0.34302040934562683,-0.931841254234314,0.16393951925621797,-0.08487165766954949,-0.14244658033316349,0.9724348214137383,-0.07005951553583145,-0.1925051361322403,-0.35885727405548096,-0.002273768186569214,-0.0007496476173400879,-0.0012369155883789062
2025-09-16T01:58:03Z,-0.12746985839480424,0.34975658134162746,-0.2763722643907491,-0.11942831426858902,-0.34266918897628784,-0.9318340420722961,0.16334032686253247,-0.08604012997286063,-0.1463463982718284,0.9718537249649808,-0.07077789306640625,-0.19328492879867554,-0.36195752024650574,-0.0015614703297615051,-0.0009670555591583252,0.0007589459419250488
2025-09-16T01:58:03Z,-0.12868193368854886,0.34938203984453625,-0.28432760505767724,-0.12057414650917053,-0.3423173129558563,-0.9318158030509949,0.16272326077363872,-0.08725376953919345,-0.15030257052417784,0.9712450264043584,-0.07224094867706299,-0.2035568803548813,-0.37021857500076294,-0.0018101930618286133,-0.00270727276802063,0.0020923614501953125
2025-09-16T01:58:03Z,-0.1300093561316714,0.3490036142647764,-0.2925422075445533,-0.12182773649692535,-0.34196171164512634,-0.9317833185195923,0.16207680000643315,-0.08854058478268226,-0.15439101787576326,0.970595167843459,-0.07319731265306473,-0.212235227227211,-0.3861604332923889,1.4431774616241455e-05,-0.004221796989440918,0.0023819804191589355
2025-09-16T01:58:03Z,-0.13135188049371774,0.34856090593153227,-0.30109015662372063,-0.12309838086366653,-0.3415456712245941,-0.9317689538002014,0.16137499621519202,-0.08985340603778372,-0.1586379987566022,0.9699063840896751,-0.07374991476535797,-0.2165108174085617,-0.3997308015823364,0.0007071793079376221,-0.003066837787628174,0.001340329647064209
2025-09-16T01:58:03Z,-0.13260783952872657,0.34818262110003,-0.30990672872312297,-0.12428562343120575,-0.3411900997161865,-0.9317415952682495,0.16069100767364583,-0.09114598962241695,-0.1630059727177015,0.9691748439720633,-0.07212722301483154,-0.2133816033601761,-0.4134913980960846,0.0015234649181365967,-0.004852384328842163,-0.00039774179458618164
2025-09-16T01:58:03Z,-0.13369092552283413,0.34795557376342384,-0.319001703764734,-0.12530502676963806,-0.34097665548324585,-0.9316831827163696,0.16007383930025013,-0.09238380622557534,-0.16749411280002416,0.9683941111356016,-0.06878689676523209,-0.21046340465545654,-0.42634886503219604,0.0009855180978775024,-0.0039528608322143555,-0.0014940500259399414
2025-09-16T01:58:03Z,-0.1346643924681948,0.3479152112015614,-0.32827311252002267,-0.12621377408504486,-0.3409387171268463,-0.9315744042396545,0.15954052311351644,-0.09359281090283018,-0.172058417343969,0.9675654878353097,-0.06074787676334381,-0.20526623725891113,-0.4319283068180084,0.0007846951484680176,-0.0005865097045898438,-0.002880096435546875
2025-09-16T01:58:03Z,-0.13547914441415665,0.3480380209363698,-0.3375730675080471,-0.12696708738803864,-0.34105417132377625,-0.9314297437667847,0.15909126449309471,-0.09473691325510336,-0.1766227600981713,0.9667052740108583,-0.048452578485012054,-0.19958938658237457,-0.42791548371315,0.0009067952632904053,0.0017435252666473389,-0.003566145896911621
2025-09-16T01:58:03Z,-0.13593930037816646,0.3484686988496112,-0.3463006276256634,-0.1273757517337799,-0.3414590060710907,-0.931225597858429,0.15884358895135572,-0.09568643676794869,-0.18088382647752743,0.9658642437215771,-0.04189717397093773,-0.18364357948303223,-0.40986937284469604,0.0003744363784790039,0.005800008773803711,-0.004347264766693115
2025-09-16T01:58:03Z,-0.13639552363457558,0.34890313862201044,-0.355029306202484,-0.12778040766716003,-0.3418672978878021,-0.9310203790664673,0.1585927714328462,-0.0966340716727583,-0.18514129452899356,0.9650040248593806,-0.0353417694568634,-0.16769778728485107,-0.39182326197624207,-0.00016194581985473633,0.009859979152679443,-0.005129516124725342
2025-09-16T01:58:03Z,-0.13684777284221275,0.3493413432764639,-0.363759155862873,-0.12818099558353424,-0.3422790765762329,-0.9308139681816101,0.1583388268643977,-0.09757979563492639,-0.18939508981530107,0.964124677114476,-0.028786366805434227,-0.15175199508666992,-0.3737771511077881,-0.000702396035194397,0.013923466205596924,-0.005912899971008301
2025-09-16T01:58:03Z,-0.13711568504920044,0.3497705811362706,-0.37173618972726863,-0.12841027975082397,-0.3426823318004608,-0.9306339621543884,0.15813017477188074,-0.09837605329083304,-0.19326750341706014,0.9633091869451295,-0.023251648992300034,-0.13876743614673615,-0.343505859375,-0.0024652183055877686,0.01643049716949463,-0.005846142768859863
2025-09-16T01:58:03Z,-0.13749711933634268,0.35001550063282466,-0.3777485430971453,-0.12875373661518097,-0.3429124355316162,-0.9305017590522766,0.15791475737636193,-0.09905573875991396,-0.19619675573529616,0.9626824755770412,-0.019290849566459656,-0.1320955455303192,-0.3013265132904053,-0.0024411827325820923,0.01799026131629944,-0.005101680755615234
2025-09-16T01:58:03Z,-0.1378770149196381,0.35026262734747826,-0.3837613772427023,-0.12909556925296783,-0.34314456582069397,-0.9303688406944275,0.15769786583709122,-0.09973449121212405,-0.19912416473400577,0.9620466468106765,-0.015330048277974129,-0.12542366981506348,-0.25914713740348816,-0.0024187415838241577,0.019552111625671387,-0.004357874393463135
2025-09-16T01:58:03Z,-0.138255401287316,0.3505119582028424,-0.38977473526706413,-0.12943580746650696,-0.3433787524700165,-0.9302351474761963,0.15747948525291702,-0.10041231063034174,-0.2020497007478553,0.9614018198894818,-0.011369247920811176,-0.11875178664922714,-0.21696777641773224,-0.0023979395627975464,0.021115928888320923,-0.00361478328704834
2025-09-16T01:58:03Z,-0.13901636254945585,0.35072517218768545,-0.3930094251658708,-0.1301334947347641,-0.3435789942741394,-0.9300638437271118,0.15734236017281336,-0.10105172622181732,-0.20366773286047715,0.9610157490510303,-0.0017757313326001167,-0.10168173909187317,-0.18070337176322937,-0.00047759711742401123,0.01663801074028015,-0.00412905216217041
2025-09-16T01:58:03Z,-0.13977666457528798,0.3509406683679065,-0.39624418692256064,-0.13083025813102722,-0.34378135204315186,-0.9298912882804871,0.15720471392057203,-0.10169082083932664,-0.20528510582980525,0.9606266391311824,0.007817785255610943,-0.08461169898509979,-0.1444389820098877,0.0014418065547943115,0.012162208557128906,-0.004644572734832764
2025-09-16T01:58:03Z,-0.14053624366017592,0.35115848297725305,-0.39947904740452667,-0.13152605295181274,-0.3439858853816986,-0.929717481136322,0.15706657631561566,-0.10232957961596134,-0.20690183448850658,0.9602344305082156,0.017411302775144577,-0.06754165142774582,-0.10817457735538483,0.003360271453857422,0.007688552141189575,-0.0051613450050354
2025-09-16T01:58:03Z,-0.14114128780216242,0.35150568057545256,-0.40173399896532475,-0.13207174837589264,-0.3443118631839752,-0.9295194149017334,0.15705567605214282,-0.10282894257072123,-0.20803758825575247,0.959937426743759,0.02530670538544655,-0.05503013730049133,-0.08222400397062302,0.0038484036922454834,0.006378918886184692,-0.004107177257537842
2025-09-16T01:58:03Z,-0.14165165655589437,0.35201553927441054,-0.4027419627673375,-0.13252133131027222,-0.344790518283844,-0.9292780160903931,0.15719654263865085,-0.10319997965309063,-0.20856989161850073,0.9597591335933655,0.026942627504467964,-0.04859159514307976,-0.06446018069982529,0.003094226121902466,0.005064934492111206,-0.0037575960159301758
2025-09-16T01:58:03Z,-0.14216152923426165,0.3525258093503309,-0.4037497619291708,-0.1329701840877533,-0.34526944160461426,-0.929036021232605,0.15733731989530536,-0.10357094957755751,-0.20910207515569126,0.9595803041385188,0.02857854962348938,-0.04215305298566818,-0.04669635742902756,0.0023393332958221436,0.0037512481212615967,-0.0034085512161254883
2025-09-16T01:58:03Z,-0.14267095511980626,0.35303655400578365,-0.40475744890544824,-0.13341835141181946,-0.3457487225532532,-0.9287934899330139,0.1574780226975749,-0.10394187471296858,-0.20963415383695813,0.9594009979667003,0.030214469879865646,-0.035714514553546906,-0.028932534158229828,0.0015837550163269043,0.0024379491806030273,-0.0030600428581237793
2025-09-16T01:58:03Z,-0.1431253118418698,0.35365266292943853,-0.40493472311049133,-0.1338099241256714,-0.3463267683982849,-0.9285217523574829,0.1577182403131555,-0.10423080873564684,-0.20976533377847675,0.9593015458501104,0.02939385361969471,-0.028692737221717834,-0.02441323921084404,0.0018519163131713867,0.0027073919773101807,-0.003318965435028076
2025-09-16T01:58:03Z,-0.14357962985023673,0.3542687566448726,-0.40511162844788995,-0.13420119881629944,-0.3469046950340271,-0.9282495379447937,0.15795841325096896,-0.10451972035523684,-0.20989645377297445,0.9592017957789928,0.028573237359523773,-0.021670959889888763,-0.019893944263458252,0.0021197646856307983,0.0029766857624053955,-0.003578364849090576
2025-09-16T01:58:03Z,-0.14403397849482769,0.3548849995686672,-0.40528839142121553,-0.1345922201871872,-0.3474825918674469,-0.9279767274856567,0.15819857128763246,-0.1048086319577061,-0.2100275736989884,0.9591019861032729,0.027752622961997986,-0.014649180695414543,-0.015374649316072464,0.0023873597383499146,0.0032459795475006104,-0.00383836030960083
2025-09-16T01:58:03Z,-0.14448831840084522,0.3555013484824057,-0.4054648612332158,-0.13498295843601227,-0.3480604588985443,-0.9277033805847168,0.15843871444882812,-0.10509752119132838,-0.2101586338834328,0.9590020572868323,0.02693200670182705,-0.0076274024322628975,-0.010855354368686676,0.0026546716690063477,0.003515273332595825,-0.0040988922119140625
2025-09-16T01:58:03Z,-0.14494264756242436,0.35611776271047907,-0.4056410764740863,-0.13537341356277466,-0.34863826632499695,-0.9274294376373291,0.1586788278248455,-0.10538639548955853,-0.21028966406012492,0.9589019496908265,0.026111392304301262,-0.0006056251004338264,-0.0063360584899783134,0.0029217004776000977,0.0037844479084014893,-0.0043599605560302734
2025-09-16T01:58:04Z,-0.1451253395440561,0.3565784853629206,-0.4056604401935381,-0.1355196088552475,-0.3490700423717499,-0.9272456765174866,0.15888067667844893,-0.10551817493848581,-0.21032134050511075,0.9588470769915808,0.017082059755921364,0.0019788409117609262,0.0010312446393072605,0.001444593071937561,0.005193561315536499,-0.0019369125366210938
2025-09-16T01:58:04Z,-0.14532783203049351,0.3568246860980272,-0.4054315208788565,-0.13569490611553192,-0.349300742149353,-0.9271331429481506,0.1589901430693189,-0.10561984473542613,-0.21023190740023034,0.9588373449763402,0.008093355223536491,-0.003435947699472308,0.01213822327554226,9.85264778137207e-05,0.006460994482040405,0.0009125471115112305
2025-09-16T01:58:04Z,-0.14562209832472803,0.356873825192477,-0.4049944091678844,-0.1359652429819107,-0.349346786737442,-0.9270762205123901,0.15900600464154288,-0.10573071276324052,-0.21004658136709303,0.9588631283185192,0.0027874824590981007,-0.008023313246667385,0.02540050446987152,-0.0005385279655456543,0.005582451820373535,0.0023827552795410156
2025-09-16T01:58:04Z,-0.14601481492952886,0.35678050158916974,-0.4042809940842749,-0.13633404672145844,-0.3492593467235565,-0.9270550012588501,0.15895753886880848,-0.10585367368516953,-0.20973413137479566,0.9589260126235497,0.0028719839174300432,-0.011165941134095192,0.03949911147356033,-0.0012390464544296265,0.004164218902587891,0.0034486055374145508
2025-09-16T01:58:04Z,-0.14650920793286504,0.3566390502944449,-0.4032768826415639,-0.13679957389831543,-0.34912681579589844,-0.9270363450050354,0.15889073510780835,-0.10599791475880659,-0.20928948219780608,0.9590183147193404,0.0026195861864835024,-0.010370975360274315,0.05267185717821121,-0.0018350183963775635,0.0035589933395385742,0.002491176128387451
2025-09-16T01:58:04Z,-0.1471072046703147,0.35649522422669433,-0.4019749559122538,-0.13736127316951752,-0.3489920198917389,-0.9270040392875671,0.15882795469518854,-0.10616806613818516,-0.20871011109026455,0.9591361632004178,0.004271067678928375,-0.0038649667985737324,0.06695608049631119,-0.0013062208890914917,0.0041148364543914795,-0.0011213421821594238
2025-09-16T01:58:04Z,-0.14761891528470444,0.3563301770819089,-0.40038178387132123,-0.13784408569335938,-0.34883734583854675,-0.9269905686378479,0.15877968968573491,-0.10627192398628897,-0.20798372202981574,0.9592903010368783,0.0025503947399556637,0.006114031653851271,0.08324238657951355,-0.0010201483964920044,0.0054985880851745605,-0.004010260105133057
2025-09-16T01:58:04Z,-0.14809108995243422,0.3560636646053926,-0.39840558554567695,-0.1382954865694046,-0.3485875725746155,-0.9270172715187073,0.15870718802248313,-0.10631733394744608,-0.20706839982017428,0.9594952603250216,0.001904830103740096,0.01762346550822258,0.10308562964200974,-0.0014088153839111328,0.005975544452667236,-0.005847811698913574
