timestamp,attitude_roll,attitude_pitch,attitude_yaw,gravity_x,gravity_y,gravity_z,quaternion_x,quaternion_y,quaternion_z,quaternion_w,rotation_rate_x,rotation_rate_y,rotation_rate_z,user_acceleration_x,user_acceleration_y,user_acceleration_z
2025-09-20T02:19:52Z,-0.028542600287649766,0.08489214973491888,-0.20934260089228202,-0.1616961658000946,-0.3396208882331848,-0.9265592098236084,0.04070711832925279,-0.018612922497161444,-0.1049777841448966,0.993466720534294,0.10807663202285767,-0.0016433042474091053,-0.06424196064472198,0.0077653080224990845,-0.0008189082145690918,-0.014922261238098145
2025-09-20T02:19:52Z,-0.028379484631280757,0.08713362643142157,-0.2105681803629743,-0.1612049639225006,-0.3418712317943573,-0.9258169531822205,0.04181777950721981,-0.018673822689454552,-0.10559397238022147,0.9933540952787272,0.11480633169412613,0.008550707250833511,-0.06418300420045853,0.010885000228881836,-0.007564932107925415,-0.01673668622970581
2025-09-20T02:19:52Z,-0.0280154131757754,0.08952058802976302,-0.2118933228409905,-0.1605004370212555,-0.34426793456077576,-0.9250509142875671,0.04301033367232589,-0.018646053122448686,-0.10625554580990296,0.9932331003650234,0.12118663638830185,0.011686793528497219,-0.0727144405245781,0.00887782871723175,-0.011558204889297485,-0.015824079513549805
2025-09-20T02:19:52Z,-0.027692678015316514,0.0920168440170792,-0.21337242979338963,-0.15979324281215668,-0.34678423404693604,-0.924233078956604,0.04425351129596754,-0.018649567327764426,-0.10699425330596768,0.9930991995212836,0.12416796386241913,0.00170079804956913,-0.0752074271440506,0.005858764052391052,-0.007916152477264404,-0.011653900146484375
2025-09-20T02:19:52Z,-0.02763003895890445,0.09449996431985484,-0.214783495292424,-0.15934409201145172,-0.34927645325660706,-0.9233717918395996,0.04547674846745641,-0.018781808449911164,-0.10770433510760083,0.992964696157016,0.12200220674276352,-0.006520833820104599,-0.0675506666302681,0.005964338779449463,-0.003230482339859009,-0.010460853576660156
2025-09-20T02:19:52Z,-0.02763826634406318,0.09689660501242542,-0.21603725461952306,-0.15900182723999023,-0.35166487097740173,-0.9225238561630249,0.046654464047222226,-0.01894263926779509,-0.10833723500966093,0.9928381504496832,0.11197369545698166,-0.006280460860580206,-0.05760476365685463,0.008503243327140808,-0.0006827414035797119,-0.013644099235534668
2025-09-20T02:19:52Z,-0.02754119192766457,0.09901626496203507,-0.21704361053514062,-0.15862929821014404,-0.35376155376434326,-0.9217860102653503,0.0477025209565373,-0.019031857201810796,-0.10884340862988058,0.9927312196326287,0.09842393547296524,0.005791854579001665,-0.044988371431827545,0.011489316821098328,0.0010046064853668213,-0.016911566257476807
2025-09-20T02:19:52Z,-0.02729706045878204,0.10089296506564255,-0.21774561840073828,-0.15820302069187164,-0.35559138655662537,-0.9211550354957581,0.04864077597670001,-0.01902861062640207,-0.10919364790188728,0.992647340929063,0.08613525331020355,0.011632883921265602,-0.028927817940711975,0.01025421917438507,0.0017680823802947998,-0.01446455717086792
2025-09-20T02:19:52Z,-0.027094233804846764,0.10253922541131666,-0.2181325635957811,-0.15789933502674103,-0.3571650981903076,-0.9205981492996216,0.04946535300069009,-0.01902626466489181,-0.10938727515868966,0.9925853500822663,0.07744085788726807,0.006987461820244789,-0.013384809717535973,0.010695263743400574,-0.00117415189743042,-0.011956870555877686
2025-09-20T02:19:52Z,-0.026863282311675857,0.10409646777395798,-0.21836068790099275,-0.15761223435401917,-0.3586345314979553,-0.9200758934020996,0.050248768099812734,-0.019001471945191424,-0.10950077875319064,0.9925339656323194,0.07575266063213348,0.01581694558262825,-0.01564410887658596,0.0129537433385849,-0.009665101766586304,-0.015381872653961182
2025-09-20T02:19:52Z,-0.02646712772106067,0.10567422073039004,-0.2187321740546862,-0.1571357548236847,-0.36014094948768616,-0.9195688366889954,0.051050040830470905,-0.01889964573652435,-0.1096810316106229,0.9924750845196628,0.07943637669086456,0.015599856153130531,-0.024175399914383888,0.010341987013816833,-0.013041853904724121,-0.013746976852416992
2025-09-20T02:19:52Z,-0.026141435077164304,0.10731350473699203,-0.21920573693904544,-0.15669716894626617,-0.3617166578769684,-0.9190250635147095,0.05187702403729217,-0.01883906924479258,-0.10991357431279322,0.99240764661682,0.08473983407020569,0.006953803822398186,-0.023690976202487946,0.005948156118392944,-0.010550230741500854,-0.010523438453674316
2025-09-20T02:19:53Z,-0.02578634654350976,0.10892315047014758,-0.21962065713339263,-0.15624743700027466,-0.3632562756538391,-0.9184942245483398,0.05269146700680051,-0.018761145914205073,-0.11011578002484208,0.9923437868130919,0.07820536196231842,0.01111401803791523,-0.022601641714572906,0.007431522011756897,-0.009148240089416504,-0.012072980403900146
2025-09-20T02:19:53Z,-0.025430507198813602,0.11053264839754323,-0.22003623871465683,-0.15579716861248016,-0.3647948205471039,-0.9179607629776001,0.05350587083668645,-0.01868320051317842,-0.11031790914474342,0.9922792533619496,0.07167088240385056,0.015274232253432274,-0.021512307226657867,0.008914366364479065,-0.007747292518615723,-0.013625085353851318
2025-09-20T02:19:53Z,-0.0250739499921095,0.11214201402997954,-0.2204524419512812,-0.15534637868404388,-0.3663323223590851,-0.917424738407135,0.05432024421180842,-0.01860525203978821,-0.11051994797780898,0.9922139881866807,0.06513640284538269,0.019434446468949318,-0.02042297273874283,0.01039665937423706,-0.006347388029098511,-0.015179812908172607
2025-09-20T02:19:53Z,-0.024676644728054337,0.11340861453338655,-0.22083318425983903,-0.1548708826303482,-0.3675485849380493,-0.9170185327529907,0.054967142202666144,-0.018487724861885407,-0.11070187544614833,0.9921601682338956,0.05045858025550842,0.015539489686489105,-0.01665700599551201,0.008381947875022888,-0.0034773647785186768,-0.012462198734283447
2025-09-20T02:19:53Z,-0.024496704183851872,0.11438042271061803,-0.2210216438262441,-0.15464787185192108,-0.3684677481651306,-0.9166872501373291,0.05545752665505434,-0.018456801361109044,-0.11079327672200792,0.9921232445533372,0.038159891963005066,0.0012401873245835304,-0.003989281132817268,0.006775811314582825,-0.0006257891654968262,-0.009862780570983887
2025-09-20T02:19:53Z,-0.02448482687898327,0.11510330574173153,-0.22100599168555657,-0.1546345353126526,-0.36913082003593445,-0.9164227247238159,0.05581697641190969,-0.018490014066936438,-0.11078728887187476,0.992103130860611,0.03106365166604519,0.0004736445262096822,0.002795211970806122,0.00998106598854065,-0.0025097131729125977,-0.012289285659790039
2025-09-20T02:19:53Z,-0.02428494061146734,0.11576056676594376,-0.22095654159370834,-0.15445837378501892,-0.36972886323928833,-0.9162113070487976,0.05615458900039629,-0.01842542139461248,-0.11075905198142043,0.9920884095341616,0.033398985862731934,0.014667180366814137,0.0007711637299507856,0.011091381311416626,-0.007470607757568359,-0.015111863613128662
2025-09-20T02:19:53Z,-0.023867780691498582,0.11650384069357032,-0.22096807358542428,-0.15406657755374908,-0.3704138398170471,-0.9160005450248718,0.056546336108156674,-0.0182594641601134,-0.11075508114284723,0.9920696585553064,0.04120442271232605,0.02165921777486801,-0.0005404303083196282,0.007578596472740173,-0.008917510509490967,-0.01373511552810669
2025-09-20T02:19:53Z,-0.023427177234577694,0.11741770573836653,-0.220930244710256,-0.15366491675376892,-0.3712489604949951,-0.9157299399375916,0.05702444966744169,-0.018089810840026223,-0.11072622242586178,0.9920486281099288,0.04879141226410866,0.020715003833174706,0.0030895862728357315,0.004443809390068054,-0.007050126791000366,-0.012380719184875488
2025-09-20T02:19:53Z,-0.02306424179033903,0.11847854132984235,-0.220726961325531,-0.15337660908699036,-0.37219709157943726,-0.9153933525085449,0.05757263547112313,-0.01796194053603506,-0.11061765247531297,0.9920315066442613,0.0522872619330883,0.01794559694826603,0.013727763667702675,0.0038483738899230957,-0.005044043064117432,-0.013049483299255371
2025-09-20T02:19:53Z,-0.022728239969932677,0.11948294921344199,-0.22034543750230287,-0.1531601846218109,-0.37306952476501465,-0.915074348449707,0.05809289588158313,-0.01783907178297878,-0.11042111889550933,0.9920252428625551,0.048699893057346344,0.01372641883790493,0.023410122841596603,0.004075139760971069,-0.0038497447967529297,-0.014521896839141846
2025-09-20T02:19:53Z,-0.022533823130212557,0.12038319778266003,-0.2197364811988693,-0.15313376486301422,-0.37381604313850403,-0.9147740602493286,0.0585556401753359,-0.01777390741224866,-0.11011548981141679,0.9920331770702869,0.03819061070680618,0.010591451078653336,0.03052319772541523,0.005122750997543335,-0.0026235878467559814,-0.01566910743713379
2025-09-20T02:19:53Z,-0.02237561924282991,0.12104992621594297,-0.2189712101183227,-0.15318328142166138,-0.37432730197906494,-0.9145566821098328,0.05890188384193933,-0.01770915800347367,-0.10973276169719978,0.9920562779709808,0.02874722331762314,0.00988385546952486,0.0387575626373291,0.006610676646232605,-0.0019330382347106934,-0.015287041664123535
2025-09-20T02:19:53Z,-0.02219846304934064,0.12154739091375599,-0.21801409683738154,-0.15326692163944244,-0.37465763092041016,-0.9144074320793152,0.05916683611409446,-0.01761993224859424,-0.10925387876447856,0.9920949153651111,0.024497417733073235,0.011913965456187725,0.04983769357204437,0.006912246346473694,-0.0031109750270843506,-0.012949228286743164
2025-09-20T02:19:53Z,-0.022134997811045724,0.12206642899355595,-0.21694620199694947,-0.15348315238952637,-0.3749927878379822,-0.9142337441444397,0.05943720386326021,-0.01758472188284563,-0.10872339770106179,0.992137665457065,0.027618862688541412,0.014746615663170815,0.0525977797806263,0.008817881345748901,-0.006964594125747681,-0.011139333248138428
2025-09-20T02:19:53Z,-0.021934273683648208,0.12264989835256218,-0.21587030301140286,-0.1535753458738327,-0.3753856122493744,-0.9140570163726807,0.05974701007172497,-0.01748433794812671,-0.10818494731253989,0.9921797038026197,0.032119326293468475,0.018916422501206398,0.05284944176673889,0.009648889303207397,-0.00922328233718872,-0.011375367641448975
2025-09-20T02:19:53Z,-0.021608542201624854,0.12327922465241087,-0.21469147083116055,-0.15357966721057892,-0.37580642104148865,-0.91388338804245,0.06008709280304454,-0.017320955415354007,-0.10759168846150613,0.9922265591217453,0.030617350712418556,0.02265145815908909,0.05725668743252754,0.009696170687675476,-0.008255362510681152,-0.012854278087615967
2025-09-20T02:19:53Z,-0.021283529459644145,0.123908959296015,-0.21351275324608274,-0.1535845547914505,-0.37622714042663574,-0.9137094616889954,0.060427159313131425,-0.01715756379644657,-0.10699837563691755,0.992272926652901,0.029115373268723488,0.02638649195432663,0.06166393309831619,0.009743988513946533,-0.007287561893463135,-0.014333486557006836
2025-09-20T02:19:53Z,-0.020911526108088985,0.12436513871846998,-0.21219713386308553,-0.15358342230319977,-0.37646999955177307,-0.9136095643043518,0.06068458802253556,-0.016957193631263,-0.10633525517894762,0.9923319027185827,0.02007867395877838,0.025059912353754044,0.06799653172492981,0.008248016238212585,-0.006334573030471802,-0.013935446739196777
2025-09-20T02:19:53Z,-0.02064305194172146,0.1246735750455714,-0.210739102736774,-0.15371489524841309,-0.3765579164028168,-0.9135512113571167,0.06086417804506309,-0.016795819744755365,-0.10560422291037644,0.9924017177756366,0.01214901078492403,0.019614068791270256,0.0743146613240242,0.008756116032600403,-0.005317628383636475,-0.012529611587524414
2025-09-20T02:19:53Z,-0.020456816724589773,0.1248156399158643,-0.20914849324582818,-0.15395696461200714,-0.3764749765396118,-0.9135446548461914,0.060957787447024986,-0.016662347214379265,-0.10480952288287831,0.9924824158352987,0.005848970729857683,0.020844947546720505,0.07649832218885422,0.010280728340148926,-0.007746249437332153,-0.013517618179321289
2025-09-20T02:19:53Z,-0.020166278678820843,0.12489863873691877,-0.20764860582644337,-0.1540803164243698,-0.3763495087623596,-0.9135755300521851,0.061026580207906786,-0.01647670601293228,-0.10405647832191982,0.9925605033031493,0.0041963388212025166,0.02619067206978798,0.06916550546884537,0.011189877986907959,-0.012212991714477539,-0.014750957489013672
2025-09-20T02:19:53Z,-0.01975004512919939,0.1250178619332943,-0.20629108652418507,-0.15405137836933136,-0.3762758672237396,-0.9136107563972473,0.06111843963839723,-0.016234782960887217,-0.10337023209459327,0.9926306208602212,0.008202672004699707,0.03046262264251709,0.06147994473576546,0.010724708437919617,-0.0141582190990448,-0.014973700046539307
2025-09-20T02:19:53Z,-0.01920029171327047,0.12520769754224548,-0.20509442955071672,-0.15385796129703522,-0.3762882351875305,-0.9136382937431335,0.06125062703423036,-0.01593498300376978,-0.10275978533281631,0.9926907097462524,0.011765788309276104,0.029214514419436455,0.05468989536166191,0.008892402052879333,-0.013371706008911133,-0.013205409049987793
2025-09-20T02:19:53Z,-0.0188033179242383,0.12547796749809711,-0.2039691594149692,-0.15378490090370178,-0.37638357281684875,-0.9136112928390503,0.061414038758328994,-0.015717122082057167,-0.10218948563973891,0.9927429508411754,0.012531094253063202,0.025234604254364967,0.05207278952002525,0.008017569780349731,-0.010344743728637695,-0.012602567672729492
2025-09-20T02:19:53Z,-0.018474509074510828,0.12563424093717224,-0.20283816972582797,-0.15377625823020935,-0.3763733506202698,-0.913616955280304,0.06151720839152079,-0.015527019645402672,-0.10161820056097377,0.9927981799430144,0.004724797792732716,0.021149395033717155,0.05423971265554428,0.006759032607078552,-0.007314443588256836,-0.012649834156036377
2025-09-20T02:19:53Z,-0.018154325345415015,0.1256646450733538,-0.2017511638727034,-0.15376481413841248,-0.3762534260749817,-0.9136682748794556,0.06155691539183618,-0.015336154241125836,-0.10106878811244661,0.9928547529167463,-0.0032120011746883392,0.019572818651795387,0.05433572083711624,0.006987184286117554,-0.006780952215194702,-0.012938439846038818
2025-09-20T02:19:53Z,-0.018004906055527806,0.12556332256779484,-0.20062403894762795,-0.1539204865694046,-0.3760070502758026,-0.9137434959411621,0.0615227493036962,-0.015222245788562275,-0.10050450207371375,0.9929159036906345,-0.00684985239058733,0.011029629968106747,0.053026989102363586,0.006146028637886047,-0.0075273215770721436,-0.010514438152313232
2025-09-20T02:19:53Z,-0.01799400001147027,0.1254719140905975,-0.1995651662828527,-0.15418484807014465,-0.37577876448631287,-0.9137928485870361,0.06148595650577116,-0.015179738257958644,-0.09997834308023205,0.9929719591713049,-0.00472198985517025,0.0021556010469794273,0.051632046699523926,0.006189018487930298,-0.007898151874542236,-0.008622407913208008
2025-09-20T02:19:53Z,-0.018140196731740145,0.1254401750760847,-0.19846669226644562,-0.15460243821144104,-0.3755994439125061,-0.9137960076332092,0.061471253605679184,-0.015216993321582717,-0.0994373986024397,0.9930266454212273,-0.0032745422795414925,-0.0040667979046702385,0.05603863671422005,0.0068075209856033325,-0.008436828851699829,-0.010148167610168457
2025-09-20T02:19:53Z,-0.018309917688313453,0.12537184404387192,-0.19731043812848403,-0.15505652129650116,-0.3753783404827118,-0.9138099551200867,0.06143771865193047,-0.015262387625325273,-0.09886840493438226,0.993084821408154,-0.0042982217855751514,-0.0013529250863939524,0.05623096972703934,0.009495854377746582,-0.008302092552185059,-0.014169931411743164
2025-09-20T02:19:53Z,-0.018256722300076956,0.12523834831002173,-0.19628176380741233,-0.15527425706386566,-0.37511470913887024,-0.913881242275238,0.06138187833584081,-0.015197881229862268,-0.09835577981859253,0.99314018130741,-0.006835083942860365,0.0032500468660146,0.049886953085660934,0.009215831756591797,-0.009316861629486084,-0.014140188694000244
2025-09-20T02:19:53Z,-0.018203368646310517,0.12510490843822827,-0.19525312157221164,-0.15549170970916748,-0.3748508393764496,-0.9139525294303894,0.061326021309849016,-0.015133360400205378,-0.09784313556472633,0.9931952957195174,-0.009371945634484291,0.007853019051253796,0.04354293644428253,0.008935496211051941,-0.010331869125366211,-0.014110386371612549
2025-09-20T02:19:53Z,-0.01819683482028016,0.12491539244626776,-0.1943483864656076,-0.15572023391723633,-0.3745523989200592,-0.914035975933075,0.06123905030071854,-0.015093250215714267,-0.09739335269646023,0.9932454899372372,-0.009529927745461464,0.00564032606780529,0.04152245447039604,0.007425561547279358,-0.010627835988998413,-0.01167827844619751
2025-09-20T02:19:53Z,-0.018260352234598147,0.12478737603037178,-0.19356422792252675,-0.1559811532497406,-0.3743267357349396,-0.9140838980674744,0.0611783029144399,-0.015094649954655863,-0.09700567414242894,0.9932870509854514,-0.0065769050270318985,0.005413467530161142,0.039257001131772995,0.008348971605300903,-0.01155039668083191,-0.012630105018615723
2025-09-20T02:19:53Z,-0.01832380500438974,0.1246592993585766,-0.19278013440430283,-0.15624195337295532,-0.37410086393356323,-0.9141318202018738,0.061117532957959735,-0.015096064297332778,-0.09661799447797252,0.9933285506130928,-0.0036238827742636204,0.0051866089925169945,0.03699155151844025,0.009272217750549316,-0.01247316598892212,-0.013581991195678711
2025-09-20T02:19:53Z,-0.01838712401538252,0.12453116291421185,-0.19199605137694675,-0.15650255978107452,-0.37387481331825256,-0.9141797423362732,0.061056748263946845,-0.015097459078782387,-0.09623029100987783,0.9933699249054277,-0.0006708605214953423,0.004959750454872847,0.0347260981798172,0.010195285081863403,-0.013396114110946655,-0.0145338773727417
2025-09-20T02:19:53Z,-0.018361657176200988,0.12451893053303864,-0.1912632808613189,-0.15666791796684265,-0.37376198172569275,-0.914197564125061,0.061057420694713885,-0.015061859346519029,-0.0958655328689391,0.9934056765694913,0.003323840908706188,0.005162693094462156,0.03778643161058426,0.008228570222854614,-0.010729879140853882,-0.012617111206054688
2025-09-20T02:19:53Z,-0.018448943308582832,0.12460230520810185,-0.19033374444659426,-0.15698620676994324,-0.3737092912197113,-0.9141644835472107,0.061101671026768944,-0.01508076772598778,-0.09540662228960409,0.9934468193002537,0.004294055048376322,0.001971278339624405,0.04732482135295868,0.006194159388542175,-0.008746206760406494,-0.011417627334594727
2025-09-20T02:19:53Z,-0.018417478167690904,0.12472026952389764,-0.18929286781302257,-0.15722420811653137,-0.37367263436317444,-0.9141385555267334,0.061169609077369236,-0.015038865153755644,-0.09488881256672158,0.9934928660231175,0.006698638200759888,0.012534585781395435,0.0542437881231308,0.008274242281913757,-0.010593771934509277,-0.014558732509613037
2025-09-20T02:19:53Z,-0.018220500166471174,0.1248224925345429,-0.1881871013879957,-0.15732750296592712,-0.3736121952533722,-0.9141454696655273,0.06123799453395329,-0.014911954435161322,-0.09433365303614762,0.9935434004930188,0.0018241978250443935,0.02003829926252365,0.05001423507928848,0.010073617100715637,-0.01231810450553894,-0.015277981758117676
2025-09-20T02:19:53Z,-0.017870742573299306,0.12474420343912539,-0.18719018605015794,-0.15726426243782043,-0.3734011650085449,-0.9142425656318665,0.06122293167181004,-0.014704040576723554,-0.09382757084630587,0.9935953442449991,-0.010138172656297684,0.026796936988830566,0.0484030619263649,0.01070791482925415,-0.010025650262832642,-0.016425251960754395
2025-09-20T02:19:53Z,-0.017512973771282317,0.12433973613536158,-0.18618745170734285,-0.15719711780548096,-0.3728899359703064,-0.9144627451896667,0.06104602000049027,-0.014476943529258482,-0.09331785826935457,0.9936575657254677,-0.025702668353915215,0.021129805594682693,0.04998176544904709,0.007852092385292053,-0.0052640438079833984,-0.013792574405670166
2025-09-20T02:19:53Z,-0.017260262080014327,0.12364818290916318,-0.18513293121159097,-0.15724095702171326,-0.3721078336238861,-0.9147737622261047,0.06072172355269461,-0.014287475776852654,-0.09278521810309504,0.9937301672348527,-0.03945199400186539,0.014646868221461773,0.053596965968608856,0.007957696914672852,-0.0043666064739227295,-0.012131035327911377
2025-09-20T02:19:53Z,-0.017136883517537473,0.12283073249325474,-0.18404372141979639,-0.15741246938705444,-0.37120479345321655,-0.9151111245155334,0.06032895753348277,-0.014155827470861911,-0.09223909959106714,0.9938068127980748,-0.039216604083776474,0.009893699549138546,0.05619363486766815,0.008154898881912231,-0.006484270095825195,-0.01109081506729126
2025-09-20T02:19:53Z,-0.01709037955912401,0.1220902854595117,-0.1829174909078549,-0.15766307711601257,-0.3703666031360626,-0.9154075384140015,0.05997106355763932,-0.014065189164583136,-0.09167698204899263,0.9938817359877703,-0.028596144169569016,0.00679155346006155,0.058312639594078064,0.007481858134269714,-0.009505152702331543,-0.00955265760421753
2025-09-20T02:19:53Z,-0.0171286014665071,0.1216629477944164,-0.18169120944365866,-0.1580146849155426,-0.36980125308036804,-0.9155754446983337,0.05976554113199907,-0.014028174577174488,-0.09106808382706433,0.9939506087163703,-0.02140161767601967,0.00590514624491334,0.06088974326848984,0.007133409380912781,-0.009119808673858643,-0.010767817497253418
2025-09-20T02:19:53Z,-0.017166270255290637,0.12123562188728927,-0.1804650068026516,-0.15836554765701294,-0.36923545598983765,-0.9157431721687317,0.05956002391038104,-0.013991145296332035,-0.09045914664653898,0.9940190564821871,-0.014207093045115471,0.005018739029765129,0.06346684694290161,0.006784215569496155,-0.00873488187789917,-0.011983156204223633
2025-09-20T02:19:53Z,-0.017213004379758357,0.12094890468097025,-0.1791533324740451,-0.15874546766281128,-0.3687862157821655,-0.9158583879470825,0.05942456595486581,-0.013962583676313485,-0.08980815554976095,0.9940865729684342,-0.013410958461463451,0.003075145883485675,0.06379873305559158,0.006949141621589661,-0.008595913648605347,-0.013271749019622803
2025-09-20T02:19:53Z,-0.017292790344932585,0.1206166595082299,-0.17790342200987028,-0.159139946103096,-0.36830347776412964,-0.9159842133522034,0.05926455534914855,-0.013950458380497873,-0.0891887097896277,0.994152085608154,-0.016229838132858276,0.0021671417634934187,0.059994038194417953,0.007149294018745422,-0.009466826915740967,-0.014639973640441895
2025-09-20T02:19:54Z,-0.017445980787121815,0.12020811141483573,-0.1767094174026818,-0.15958769619464874,-0.3677581250667572,-0.9161254167556763,0.059062975212098794,-0.013973340499955713,-0.08859903290195886,0.9942165135920703,-0.022992610931396484,0.0001263928133994341,0.05397765338420868,0.007286861538887024,-0.010203182697296143,-0.015554964542388916
2025-09-20T02:19:54Z,-0.017588037326277072,0.11968537027002805,-0.17565858485023023,-0.15998928248882294,-0.3671278655529022,-0.9163081049919128,0.05880415740190864,-0.013990180226584365,-0.08807992977072786,0.9942777112925939,-0.026107829064130783,-0.002159226918593049,0.049761734902858734,0.0070516616106033325,-0.010452359914779663,-0.014942348003387451
2025-09-20T02:19:54Z,-0.017614104876306443,0.11912881990950513,-0.17464757180671575,-0.16027453541755676,-0.3664717972278595,-0.9165208339691162,0.0585333578243002,-0.013949333114398691,-0.0875770825190352,0.994338676143831,-0.023738592863082886,-0.0013802815228700638,0.04750728979706764,0.007273808121681213,-0.012043803930282593,-0.014187157154083252
2025-09-20T02:19:54Z,-0.017717841099646296,0.11867954352617154,-0.17378296848749422,-0.16059286892414093,-0.36593496799468994,-0.9166796207427979,0.058311465051515056,-0.013956262321783226,-0.08714943463515269,0.9943891983301794,-0.016454337164759636,0.005199078936129808,0.03799719363451004,0.009395420551300049,-0.013769537210464478,-0.014330029487609863
2025-09-20T02:19:54Z,-0.01766980817335832,0.11838940213111762,-0.17312297125434792,-0.16071881353855133,-0.36557355523109436,-0.9168017506599426,0.05817387873291686,-0.013900693118375277,-0.08681935186319971,0.9944268924899293,-0.009945202618837357,0.006950537674129009,0.030344046652317047,0.008640468120574951,-0.012853652238845825,-0.011304855346679688
2025-09-20T02:19:54Z,-0.017559485217462905,0.1182102096113406,-0.17253202983989302,-0.1607692837715149,-0.3653239607810974,-0.916892409324646,0.05809364855478288,-0.013820988879538327,-0.08652198852521209,0.99445861238989,-0.008442005142569542,0.003729521995410323,0.02772834338247776,0.006890162825584412,-0.009438961744308472,-0.010775268077850342
2025-09-20T02:19:54Z,-0.01763820369403711,0.1179390107375156,-0.17192266107238008,-0.16099831461906433,-0.36498698592185974,-0.9169864058494568,0.05795959957947438,-0.013830879433848345,-0.08622077329866691,0.9944924494480203,-0.0140234949067235,-0.0005318026524037123,0.03098820522427559,0.007174387574195862,-0.006459414958953857,-0.012321054935455322
2025-09-20T02:19:54Z,-0.017708574570929,0.1175494130952286,-0.17131536565567726,-0.16121987998485565,-0.36454126238822937,-0.9171247482299805,0.057767025240061505,-0.013831737596568958,-0.08592010029575027,0.9945296419820479,-0.02154577150940895,-0.0038907229900360107,0.0311733391135931,0.007337108254432678,-0.00600278377532959,-0.013284623622894287
2025-09-20T02:19:54Z,-0.017871992378923587,0.11699849161750434,-0.17066265721720184,-0.16153939068317413,-0.36394044756889343,-0.9173071384429932,0.05749054976944926,-0.013870854824617064,-0.0855991678740507,0.9945728669443114,-0.026990871876478195,-0.004549623467028141,0.03227715939283371,0.008385762572288513,-0.006414145231246948,-0.014787256717681885
2025-09-20T02:19:54Z,-0.01795012294312108,0.11640056491163842,-0.16998997890692485,-0.1617860049009323,-0.36329323053359985,-0.9175202250480652,0.0571945039113877,-0.01386519305742194,-0.08526570860691449,0.9946186300422907,-0.029561763629317284,0.0008513536304235458,0.038464389741420746,0.008782431483268738,-0.007007181644439697,-0.015735387802124023
2025-09-20T02:19:54Z,-0.01792211876688254,0.1157901204206823,-0.16914890093320498,-0.16197805106639862,-0.36260995268821716,-0.9177565574645996,0.0568978952290168,-0.013801630434033938,-0.08484539576603262,0.994672508981968,-0.029696187004446983,0.009812288917601109,0.046721670776605606,0.01060745120048523,-0.006425380706787109,-0.016492903232574463
2025-09-20T02:19:54Z,-0.017764807892351797,0.11517837525814544,-0.16817170933847037,-0.16208583116531372,-0.36190536618232727,-0.9180155992507935,0.05660698332149783,-0.013670100419028549,-0.08435369863652528,0.9947327162495344,-0.0292024165391922,0.016347479075193405,0.04946012794971466,0.009170114994049072,-0.007028669118881226,-0.015332698822021484
2025-09-20T02:19:54Z,-0.017471033342922028,0.11456893705911056,-0.16706817960591192,-0.16210013628005981,-0.3611842393875122,-0.9182970523834229,0.05632366915146476,-0.013467514169272755,-0.08379532090850089,0.9947987623482949,-0.03247392922639847,0.018135445192456245,0.061365287750959396,0.008130624890327454,-0.0037890970706939697,-0.01359337568283081
2025-09-20T02:19:54Z,-0.017199810375551256,0.11374259176680224,-0.16572983847390346,-0.16219569742679596,-0.36022865772247314,-0.9186554551124573,0.0559328558665378,-0.013260967950740504,-0.08312038821218952,0.9948801996443616,-0.04305540397763252,0.017629064619541168,0.07210113853216171,0.008121013641357422,-0.004360169172286987,-0.012495875358581543
2025-09-20T02:19:54Z,-0.01705005302287288,0.11272396864984047,-0.1641948572869782,-0.16245345771312714,-0.3590664565563202,-0.9190648198127747,0.055442396752225176,-0.0131020821003251,-0.08235065280184761,0.9949738097229327,-0.05550297349691391,0.011414176784455776,0.08351905643939972,0.0075458139181137085,-0.004562646150588989,-0.01031339168548584
2025-09-20T02:19:54Z,-0.01705006924269357,0.1114270574422428,-0.16244593749027134,-0.16290424764156342,-0.35761532187461853,-0.9195507168769836,0.054808528765051545,-0.013001385152224345,-0.08147800501153149,0.9950820577546106,-0.0685812383890152,0.009758439846336842,0.08912193775177002,0.008328437805175781,-0.006616353988647461,-0.011436820030212402
2025-09-20T02:19:54Z,-0.01709378830405234,0.10995338477768621,-0.1606036307683816,-0.1634194552898407,-0.35598593950271606,-0.9200913310050964,0.05408538367299243,-0.012913980998820716,-0.08055954965176412,0.9951975093434076,-0.07376378029584885,0.010150928050279617,0.09549533575773239,0.006624817848205566,-0.008487164974212646,-0.010859966278076172
2025-09-20T02:19:54Z,-0.0170366856418528,0.10839888910733499,-0.15862297278192403,-0.16387678682804108,-0.35425981879234314,-0.920676052570343,0.05332676719314788,-0.012770869853435889,-0.07956916232979089,0.9953199642973429,-0.07525861263275146,0.007796180434525013,0.10551954805850983,0.007215127348899841,-0.0097370445728302,-0.009852945804595947
2025-09-20T02:19:54Z,-0.017087180177018935,0.10687777238815466,-0.1564530372208235,-0.164480060338974,-0.3525346517562866,-0.9212304949760437,0.052581476333459144,-0.01267913752083449,-0.07848730153907003,0.9954466700963466,-0.07573238760232925,0.01161965262144804,0.11569789052009583,0.007311955094337463,-0.009968817234039307,-0.011625945568084717
2025-09-20T02:19:54Z,-0.01700520692131891,0.10524594917598082,-0.154043283952299,-0.165021613240242,-0.35066941380500793,-0.9218453168869019,0.05178753414360717,-0.012512646459207232,-0.07728211828741091,0.9955846936963082,-0.08380195498466492,0.022353138774633408,0.12562087178230286,0.00973065197467804,-0.009704291820526123,-0.014990925788879395
2025-09-20T02:19:54Z,-0.01668525407224578,0.10343128613601796,-0.15143360245110235,-0.1653939187526703,-0.34860268235206604,-0.9225621819496155,0.05091247446132906,-0.012217630616288186,-0.07597072937584036,0.9957343725120388,-0.09418121725320816,0.02836405113339424,0.1322450339794159,0.008985787630081177,-0.010048449039459229,-0.013854742050170898
2025-09-20T02:19:54Z,-0.016360961640486886,0.10140394472197087,-0.14877251313596943,-0.16577480733394623,-0.34632834792137146,-0.9233500957489014,0.04993124895910499,-0.011913598695590711,-0.07463313308796805,0.9958888704416129,-0.10523431748151779,0.03231372311711311,0.13274502754211426,0.00820709764957428,-0.012109696865081787,-0.012702763080596924
2025-09-20T02:19:54Z,-0.015951803520508186,0.099191697930873,-0.1460769798710363,-0.16608527302742004,-0.34387409687042236,-0.9242111444473267,0.048860467459969914,-0.011562360471583757,-0.0732758769598426,0.9960469173653748,-0.11000967025756836,0.0317109040915966,0.13236789405345917,0.007341504096984863,-0.01418963074684143,-0.01104593276977539
2025-09-20T02:19:54Z,-0.015518716311373968,0.09695774483245435,-0.14347424124134192,-0.1663486659526825,-0.3414101302623749,-0.9250769019126892,0.04777829349710076,-0.011203517790502339,-0.07196428911077375,0.9961992089274334,-0.10741529613733292,0.030222367495298386,0.12828974425792694,0.008140623569488525,-0.016948819160461426,-0.010284423828125
2025-09-20T02:19:54Z,-0.015199387056902443,0.09480733819529112,-0.14093317367806535,-0.16669966280460358,-0.3390294909477234,-0.9258888959884644,0.04673247829165183,-0.010908509268641125,-0.07068638235038639,0.9963435611958178,-0.10033152252435684,0.026101775467395782,0.12384125590324402,0.008016407489776611,-0.01921185851097107,-0.009682953357696533
2025-09-20T02:19:54Z,-0.014963162214984317,0.09280543501513765,-0.1385879521273215,-0.16707651317119598,-0.33681339025497437,-0.9266294836997986,0.04575600017701671,-0.010667136289942933,-0.06950827538491888,0.9964743822047191,-0.09899255633354187,0.01739330217242241,0.11601266264915466,0.007980942726135254,-0.019853800535202026,-0.009512543678283691
2025-09-20T02:19:54Z,-0.014571089056799295,0.09082261847055902,-0.1364085095819625,-0.16726619005203247,-0.3346375524997711,-0.927383303642273,0.04479295236154385,-0.010354746229681413,-0.06840928402442266,0.9965974729333488,-0.09887675195932388,0.025702621787786484,0.10880209505558014,0.008776351809501648,-0.018494904041290283,-0.011331140995025635
2025-09-20T02:19:54Z,-0.014174721419322604,0.08884068882348425,-0.13422869514505725,-0.16745059192180634,-0.33245986700057983,-0.928132951259613,0.043829820625765445,-0.010042321113913339,-0.06731014862768277,0.9967183121284212,-0.0987609475851059,0.03401193767786026,0.10159152746200562,0.009566470980644226,-0.01713794469833374,-0.013153910636901855
2025-09-20T02:19:54Z,-0.013596882927117377,0.08683646191786881,-0.13215850932608503,-0.16743792593479156,-0.3302757143974304,-0.9289146661758423,0.04286038079039832,-0.009643149529959644,-0.06626186216065397,0.9968346365356804,-0.10410358011722565,0.041094403713941574,0.10008970648050308,0.01145876944065094,-0.013871610164642334,-0.015187501907348633
2025-09-20T02:19:54Z,-0.012916481319617078,0.08466858468444603,-0.1301175059610332,-0.16732178628444672,-0.32794108986854553,-0.9297623634338379,0.041811745568224,-0.009190154060854168,-0.06522601083367842,0.9969517421241183,-0.11196117103099823,0.043567538261413574,0.10609074681997299,0.010749593377113342,-0.007840007543563843,-0.013951718807220459
2025-09-20T02:19:54Z,-0.012263044104142964,0.08238831218941407,-0.12791321506297335,-0.16726988554000854,-0.3254736363887787,-0.930638313293457,0.0407059859210304,-0.008745805256732632,-0.06410958670523179,0.9970739646273596,-0.1153629869222641,0.034758854657411575,0.11665078997612,0.008151233196258545,-0.003418266773223877,-0.011681973934173584
2025-09-20T02:19:54Z,-0.0118437220541556,0.08006569174937202,-0.1254692351243733,-0.1674935668706894,-0.32292622327804565,-0.931485116481781,0.03957176155319489,-0.008414526165139153,-0.06287868637206108,0.9972008276034274,-0.11744673550128937,0.029032617807388306,0.12650138139724731,0.009609699249267578,-0.003500223159790039,-0.011461377143859863
2025-09-20T02:19:54Z,-0.011441272568464734,0.07773308253827622,-0.12291172655980749,-0.16775938868522644,-0.3203483819961548,-0.9323270320892334,0.0384316908268568,-0.008091927593005227,-0.06159166568942938,0.9973283913075405,-0.11306828260421753,0.025602856650948524,0.13174161314964294,0.01018369197845459,-0.006125688552856445,-0.0108642578125
2025-09-20T02:19:54Z,-0.01125286171073486,0.07548353414672278,-0.12024210591171287,-0.16825051605701447,-0.317827045917511,-0.9331011176109314,0.03732621895888135,-0.00787937051532167,-0.060253020383997775,0.9974538497489243,-0.10716500878334045,0.016850395128130913,0.13343161344528198,0.009385675191879272,-0.008375614881515503,-0.008382856845855713
2025-09-20T02:19:54Z,-0.011175245765461743,0.07335009482468792,-0.11761720151334011,-0.1688322275876999,-0.31541791558265686,-0.9338132739067078,0.03627468055008918,-0.007729232204528163,-0.05893879542828657,0.9975723379525839,-0.10072480887174606,0.00892805214971304,0.12999862432479858,0.008055567741394043,-0.01024329662322998,-0.009665906429290771
2025-09-20T02:19:54Z,-0.011163925030897554,0.07140779369508388,-0.11508592942896559,-0.16945095360279083,-0.31319934129714966,-0.934447705745697,0.035315854538147326,-0.007622049198532259,-0.05767258983141122,0.9976816059024712,-0.09222327917814255,0.005021939054131508,0.1258355677127838,0.0071794986724853516,-0.011622399091720581,-0.011246144771575928
2025-09-20T02:19:54Z,-0.011307922355833904,0.06966629323339983,-0.11263170540963148,-0.17019420862197876,-0.3111782968044281,-0.9349877238273621,0.03445229211567207,-0.0076017373138308345,-0.05644763938424572,0.9977819972974833,-0.08766806870698929,0.0010559274815022945,0.12429967522621155,0.007072031497955322,-0.010227888822555542,-0.013599038124084473
2025-09-20T02:19:54Z,-0.01144756572277524,0.06792448599955134,-0.11017803308548688,-0.17093241214752197,-0.30915454030036926,-0.9355242252349854,0.03358867340663382,-0.007581383316434343,-0.05522256339631059,0.9978801403564206,-0.08311285823583603,-0.0029100836254656315,0.12276377528905869,0.00695955753326416,-0.008836090564727783,-0.01595538854598999
2025-09-20T02:19:54Z,-0.011569540412843573,0.06617725122623594,-0.1076837307224858,-0.17166317999362946,-0.30711668729782104,-0.9360615015029907,0.03272295362280627,-0.007553531005830088,-0.05397659293447327,0.9979773178096867,-0.08515221625566483,0.003448843490332365,0.12681981921195984,0.00901767611503601,-0.005999237298965454,-0.01962578296661377
2025-09-20T02:19:54Z,-0.011431841736088848,0.06440906537108873,-0.10513179233754918,-0.1721639484167099,-0.30504733324050903,-0.9366459846496582,0.03185379736951588,-0.007396794876882694,-0.05269737870611713,0.9980749966749113,-0.0878390222787857,0.023914936929941177,0.12967774271965027,0.009274303913116455,-0.007275313138961792,-0.020710289478302002
2025-09-20T02:19:54Z,-0.011174720051873173,0.06267095857867952,-0.10262595245526536,-0.17254015803337097,-0.3030110001564026,-0.937237560749054,0.031002191179257885,-0.0071841612427388304,-0.051439307588633264,0.998168884176064,-0.08258355408906937,0.024683348834514618,0.1236102283000946,0.006658762693405151,-0.011773437261581421,-0.01438969373703003
2025-09-20T02:19:54Z,-0.010719813607014253,0.06125388799320539,-0.10024807658803296,-0.17269738018512726,-0.30129459500312805,-0.9377617835998535,0.03031483924564256,-0.006884881296746045,-0.05024276556026588,0.9982530212401937,-0.07062666118144989,0.025294825434684753,0.11814554780721664,0.006932094693183899,-0.01286366581916809,-0.012942373752593994
2025-09-20T02:19:54Z,-0.010261568326298846,0.05983794983996322,-0.09786980569816428,-0.17285020649433136,-0.29957717657089233,-0.9382836818695068,0.02962744741784232,-0.00658558653809107,-0.04904614027270896,0.9983352784164666,-0.058669768273830414,0.02590630203485489,0.11268086731433868,0.007201030850410461,-0.013954907655715942,-0.0114973783493042
2025-09-20T02:19:54Z,-0.009909049446459607,0.058588411512157185,-0.09561726050891088,-0.17306990921497345,-0.29803475737571716,-0.9387342929840088,0.029019512129056034,-0.006346484613549428,-0.04791427864303023,0.998409692296105,-0.05634232610464096,0.0222734734416008,0.1066766083240509,0.005811363458633423,-0.013514697551727295,-0.011026442050933838
2025-09-20T02:19:54Z,-0.009598744138603555,0.057447464547857034,-0.09353339279980978,-0.17328688502311707,-0.29662036895751953,-0.9391421675682068,0.02846377711637343,-0.006134753486124239,-0.046867516789734394,0.9984765914510755,-0.05827624350786209,0.013400908559560776,0.10423406958580017,0.005439326167106628,-0.011377662420272827,-0.009796857833862305
2025-09-20T02:19:54Z,-0.00945846126164241,0.05625699134972755,-0.09141155722537625,-0.17367197573184967,-0.29515165090560913,-0.9395336508750916,0.027879111733601733,-0.00600740948910737,-0.04580415554206127,0.9985431708149484,-0.06287892907857895,0.008477759547531605,0.10555076599121094,0.006161972880363464,-0.008254379034042358,-0.010814964771270752
2025-09-20T02:19:54Z,-0.00944996969472116,0.05498075139055916,-0.08923619533826832,-0.17419326305389404,-0.29359182715415955,-0.9399257898330688,0.02724858410306781,-0.0059444753483519925,-0.04471569407705243,0.9986102878873924,-0.06480906903743744,0.008216195739805698,0.10891593992710114,0.007199123501777649,-0.00858849287033081,-0.01191103458404541
2025-09-20T02:19:54Z,-0.009337682224143627,0.053657501286066736,-0.08700849781573582,-0.17462888360023499,-0.2919773757457733,-0.9403477907180786,0.02659688403918849,-0.005829372465971451,-0.04359953061282572,0.9986779148660336,-0.06426320225000381,0.014028351753950119,0.11452514678239822,0.009316980838775635,-0.009886205196380615,-0.013807237148284912
2025-09-20T02:19:54Z,-0.009083309010183234,0.05239635838037393,-0.08467640674197552,-0.1749548614025116,-0.290402352809906,-0.9407747983932495,0.02597927813395905,-0.005644726529808817,-0.04242945983413786,0.9987456420119334,-0.05953504517674446,0.01993810385465622,0.11850027740001678,0.010086402297019958,-0.011727184057235718,-0.015863239765167236
2025-09-20T02:19:54Z,-0.008783033101918275,0.05118391606759249,-0.08221021467452869,-0.17526860535144806,-0.2888490557670593,-0.9411945343017578,0.02538690027725047,-0.005437895352194551,-0.04119196137176918,0.9988138517107112,-0.058080945163965225,0.02418314851820469,0.1250799149274826,0.010892108082771301,-0.011783748865127563,-0.015626132488250732
2025-09-20T02:19:55Z,-0.008379156047711113,0.049970864825779435,-0.07960540442243765,-0.1755167543888092,-0.28727003931999207,-0.9416314363479614,0.024796167924644955,-0.005179054236958424,-0.0398840104943614,0.9988831284353438,-0.05945032462477684,0.02351883426308632,0.1304810494184494,0.009495869278907776,-0.010741740465164185,-0.014481186866760254
2025-09-20T02:19:55Z,-0.007972152720595208,0.04875886072755013,-0.07700025001559063,-0.17576056718826294,-0.2856898605823517,-0.9420666098594666,0.024205378488717816,-0.004920207593503055,-0.038575969488884275,0.998950282667387,-0.060819704085588455,0.02285452000796795,0.135882169008255,0.008095279335975647,-0.009700894355773926,-0.013337969779968262
2025-09-20T02:19:55Z,-0.007650041353313222,0.04748768714508122,-0.07423510738713683,-0.17612126469612122,-0.284024715423584,-0.9425026774406433,0.023583186005756426,-0.0047023217294141495,-0.03718905274056252,0.999018777021724,-0.061112236231565475,0.019303683191537857,0.14043931663036346,0.00816875696182251,-0.01127353310585022,-0.010216116905212402
