timestamp,attitude_roll,attitude_pitch,attitude_yaw,gravity_x,gravity_y,gravity_z,quaternion_x,quaternion_y,quaternion_z,quaternion_w,rotation_rate_x,rotation_rate_y,rotation_rate_z,user_acceleration_x,user_acceleration_y,user_acceleration_z
2025-09-16T01:54:42Z,-0.17596791961050667,0.26157315549281923,-0.215297296851973,-0.1691063940525055,-0.2586005628108978,-0.9510671496391296,0.11979736261470723,-0.1005733539692692,-0.11750445699139113,0.9806763480988082,0.003376130945980549,0.003302925266325474,-0.015089258551597595,0.002865433692932129,-0.003600001335144043,-0.0029397010803222656
2025-09-16T01:54:42Z,-0.17578058335968777,0.2617169091229455,-0.21565742991676554,-0.16892170906066895,-0.2587394118309021,-0.9510622024536133,0.11986093687110569,-0.10050988842592418,-0.1176750355421775,0.980654634820221,0.002518446883186698,0.007089864928275347,-0.02101394720375538,0.0021232962608337402,-0.005327373743057251,-0.004046976566314697
2025-09-16T01:54:42Z,-0.1754936644676397,0.2618986417267987,-0.21618533300324244,-0.1686406135559082,-0.258914977312088,-0.9510643482208252,0.11994065427186043,-0.1004094939797436,-0.11792326281049145,0.9806253221360329,0.005831514485180378,0.00783655233681202,-0.022753024473786354,0.0019180327653884888,-0.003879755735397339,-0.0004019737243652344
2025-09-16T01:54:42Z,-0.1752737834665433,0.2621461651043841,-0.2166190798283671,-0.16842031478881836,-0.2591540515422821,-0.9510382413864136,0.12005352165968199,-0.10033949130517715,-0.11813167146500755,0.9805936710153171,0.006105214357376099,-0.00014995411038398743,-0.017079422250390053,0.0009519308805465698,0.00023612380027770996,0.003358781337738037
2025-09-16T01:54:42Z,-0.1752679477518607,0.26234251099066297,-0.21689881107089548,-0.16840589046478271,-0.259343683719635,-0.9509891271591187,0.12013633794011723,-0.10036279503248366,-0.11827555267211688,0.9805638225702891,0.006597395054996014,-0.010088684037327766,-0.005314541049301624,8.630752563476562e-05,0.0041967034339904785,0.00438159704208374
2025-09-16T01:54:42Z,-0.17553006086542786,0.26249129533083665,-0.21680561984095767,-0.16864840686321259,-0.2594873607158661,-0.9509069323539734,0.12019864681831202,-0.10049280482747745,-0.11825098234344475,0.9805458501881847,0.001323522999882698,-0.01256578229367733,0.007467412389814854,0.0009864568710327148,0.0034226179122924805,0.0002829432487487793
2025-09-16T01:54:42Z,-0.17577940865849506,0.2624880856818619,-0.21653452301775977,-0.16888566315174103,-0.25948426127433777,-0.9508656859397888,0.12019596225354219,-0.10059860750098307,-0.11813293953681277,0.9805495620966894,-0.004407241940498352,-0.006750260945409536,0.020199425518512726,0.0012021660804748535,0.005033731460571289,-0.002278149127960205
2025-09-16T01:54:42Z,-0.17619005682455394,0.26227466741013905,-0.21577879024316254,-0.1692858189344406,-0.25927814841270447,-0.950850784778595,0.12010488271227038,-0.10074439275704286,-0.11777934201482557,0.9805882941781203,-0.0053610350005328655,-0.008101123385131359,0.05681093409657478,-0.0004496276378631592,0.015945062041282654,-0.0018491744995117188
2025-09-16T01:54:42Z,-0.17752292699176422,0.2618451444084418,-0.21029162394113743,-0.1705726832151413,-0.25886330008506775,-0.9507337808609009,0.12009293286225552,-0.1010484001262293,-0.11515293998846003,0.9808703809452782,0.029714379459619522,0.001451120711863041,0.2627793848514557,-0.004474088549613953,0.05952541530132294,-0.0049874186515808105
2025-09-16T01:54:42Z,-0.17885318205969455,0.2614085862194031,-0.20480569910759516,-0.1718573272228241,-0.25844159722328186,-0.9506171941757202,0.12008014191910893,-0.10135169127287065,-0.11252572535585441,0.9811455545031028,0.0647897943854332,0.011003364808857441,0.4687477946281433,-0.00850076973438263,0.10309891402721405,-0.00812530517578125
2025-09-16T01:54:42Z,-0.18018073888512,0.260964910925544,-0.19932097409442692,-0.17313970625400543,-0.25801295042037964,-0.9505009055137634,0.1200664800976516,-0.10165425126157485,-0.10989769798004122,0.9814136956423894,0.09986521303653717,0.020555607974529266,0.6747162342071533,-0.012529700994491577,0.14666546881198883,-0.011262893676757812
2025-09-16T01:54:42Z,-0.18323505679694613,0.26064697709569745,-0.1816345785143638,-0.17605696618556976,-0.25770577788352966,-0.9500482678413391,0.12064952508637396,-0.10207624421409393,-0.10138678623769423,0.9822142497111328,0.20936381816864014,0.1462889015674591,1.1396913528442383,-0.0008096545934677124,0.1862444281578064,-0.0433996319770813
2025-09-16T01:54:42Z,-0.18600407002474786,0.2608524257433712,-0.1515878511820804,-0.17867718636989594,-0.2579042911529541,-0.9495050311088562,0.12215055199255936,-0.1016204133679181,-0.08679722248880632,0.983472816579477,0.3438092768192291,0.3551596701145172,1.7485640048980713,-0.007823571562767029,0.2346523404121399,-0.059673964977264404
2025-09-16T01:54:42Z,-0.18806625006913413,0.26129544765455054,-0.1071222188593153,-0.18061348795890808,-0.2583322823047638,-0.9490222334861755,0.12453097385135545,-0.0999045068125839,-0.06505946761934588,0.9850271294718547,0.4964176416397095,0.5903014540672302,2.475886106491089,-0.02301107347011566,0.26368018984794617,-0.05669277906417847
2025-09-16T01:54:42Z,-0.18936705770633938,0.26196173182777993,-0.04781484237149574,-0.18181538581848145,-0.25897589325904846,-0.9486172199249268,0.12774382000508652,-0.09681369431592167,-0.03593852216765836,0.9864162969782817,0.6389542818069458,0.8195037245750427,3.1128857135772705,-0.047895580530166626,0.20924325287342072,-0.053693175315856934
2025-09-16T01:54:42Z,-0.18948439336635126,0.26305252895704945,0.02362654540742772,-0.1818733811378479,-0.26002931594848633,-0.9483178853988647,0.13165797120667747,-0.09223460614955552,-0.0007472963926386409,0.9869946628197889,0.7662172913551331,1.0141607522964478,3.6162004470825195,-0.07674670219421387,0.16030773520469666,-0.026919305324554443
2025-09-16T01:54:42Z,-0.1887531676223972,0.2648826277966767,0.103330938135342,-0.18109029531478882,-0.2617960274219513,-0.947981595993042,0.13611536399502847,-0.0864973451625743,0.03853466886076148,0.986157170430219,0.8417218327522278,1.1250613927841187,3.8498892784118652,-0.0902193933725357,0.03798280656337738,-0.015896975994110107
2025-09-16T01:54:42Z,-0.18701756408727133,0.2671641629573512,0.1835726234758483,-0.1793331801891327,-0.26399731636047363,-0.9477051496505737,0.14052718648790205,-0.07999710680543434,0.07806057497671505,0.9837474080224791,0.803396999835968,1.164254069328308,3.5938899517059326,-0.06310728192329407,-0.17648977041244507,-0.03295695781707764
2025-09-16T01:54:42Z,-0.18166656525586203,0.2694409162493734,0.2515527204110403,-0.17415043711662292,-0.26619261503219604,-0.9480575323104858,0.14397880448777597,-0.07239699022463418,0.11170876922665274,0.9805864298382395,0.6073454022407532,1.1580231189727783,2.72487211227417,-0.039937034249305725,-0.358733206987381,-0.022660911083221436
2025-09-16T01:54:42Z,-0.17201838901399139,0.2711481160785381,0.29745484948081113,-0.16491740942001343,-0.2678378224372864,-0.949244499206543,0.1457852492873292,-0.06422149705634993,0.13479487908157922,0.9779838521503269,0.3404421806335449,0.9931173920631409,1.5664879083633423,-0.033876389265060425,-0.43245288729667664,0.06926584243774414
2025-09-16T01:54:42Z,-0.16141675204117603,0.2718823095364966,0.3178213634726949,-0.15481314063072205,-0.26854512095451355,-0.950745165348053,0.1460196546075115,-0.05749487140492662,0.14548415257888722,0.9768351537847764,0.06363445520401001,0.5870240926742554,0.3540576696395874,-0.04936034977436066,-0.42833781242370605,0.1570378541946411
2025-09-16T01:54:42Z,-0.15351949962716185,0.2712051143627543,0.31386694515428876,-0.14732789993286133,-0.2678927481174469,-0.9521176218986511,0.14500787973011442,-0.05398049354490041,0.14416001652253213,0.9773825914855134,-0.17837099730968475,0.08312755823135376,-0.6862678527832031,-0.07801821827888489,-0.3526172935962677,0.2001158595085144
2025-09-16T01:54:42Z,-0.1503956108425299,0.2690751367831167,0.2899546929737062,-0.1444380283355713,-0.2658400237560272,-0.9531351923942566,0.14310535773297448,-0.05434374773640143,0.13278870780773047,0.9792520804452574,-0.3647826313972473,-0.3940013647079468,-1.525864839553833,-0.08771103620529175,-0.2776733636856079,0.17875570058822632
2025-09-16T01:54:42Z,-0.15314044377931044,0.2659825500754591,0.24345171877151572,-0.14717839658260345,-0.26285743713378906,-0.9535431265830994,0.14043925753056788,-0.05920512699909492,0.10993240480003086,0.9821844764355518,-0.46556299924850464,-0.7030770182609558,-2.091456174850464,-0.09430302679538727,-0.2083607316017151,0.1402246356010437
2025-09-16T01:54:42Z,-0.15602897012731157,0.2630163400563731,0.19697827445462612,-0.15005260705947876,-0.25999438762664795,-0.9538800716400146,0.13769427893407066,-0.06403326053168257,0.08701434456049925,0.9845651005417838,-0.5663433074951172,-1.0121526718139648,-2.6570475101470947,-0.10076117515563965,-0.13892853260040283,0.10162264108657837
2025-09-16T01:54:42Z,-0.16244786773022143,0.26032384515218726,0.13779933754077936,-0.15628498792648315,-0.2573935389518738,-0.953584611415863,0.1345983334019568,-0.07135117758806363,0.05753188891154874,0.9866520203028938,-0.6030727028846741,-1.180155873298645,-2.9894635677337646,-0.09993225336074829,-0.08231142163276672,0.06926369667053223
2025-09-16T01:54:42Z,-0.17054325304724938,0.25839219254136375,0.07291779810098475,-0.16408349573612213,-0.25552648305892944,-0.9527763724327087,0.13136214876850083,-0.07972324349313596,0.025050158408486983,0.9878058993938887,-0.624134361743927,-1.2793145179748535,-3.139237642288208,-0.10313330590724945,-0.011093944311141968,0.0415118932723999
2025-09-16T01:54:42Z,-0.17963724267357703,0.25678654517515076,0.007019291713385206,-0.17281420528888702,-0.2539738118648529,-0.9516472816467285,0.1278361201459689,-0.08851148644553901,-0.00801820473516108,0.987805217444595,-0.6353485584259033,-1.2978343963623047,-3.07283091545105,-0.09754769504070282,0.07391080260276794,0.006247401237487793
2025-09-16T01:54:42Z,-0.18923615781371855,0.2551136286754902,-0.05533695125162438,-0.18202055990695953,-0.2523553967475891,-0.9503605961799622,0.12400124923517525,-0.09717708808129533,-0.039331378180996725,0.9867285418895484,-0.6236145496368408,-1.2168484926223755,-2.804211378097534,-0.06835663318634033,0.1329113245010376,-0.04345834255218506
2025-09-16T01:54:42Z,-0.1975248452432622,0.2532554835800943,-0.11123410300290605,-0.18998314440250397,-0.25055697560310364,-0.949277400970459,0.1200426416121063,-0.1046472725004179,-0.0673077462726546,0.9849407420632614,-0.591378390789032,-1.012019157409668,-2.4696173667907715,-0.024424701929092407,0.13742387294769287,-0.07360517978668213
2025-09-16T01:54:42Z,-0.2034582923331948,0.2513201835923075,-0.16015278043138131,-0.19570986926555634,-0.2486829310655594,-0.9486066102981567,0.11622285553203922,-0.11040358693086408,-0.0916367576280375,0.9828051076818872,-0.5368655920028687,-0.7968246936798096,-2.113213539123535,-0.012380912899971008,0.14759302139282227,-0.08670294284820557
2025-09-16T01:54:42Z,-0.2049313012936335,0.2500515704298003,-0.19558825610418337,-0.19717100262641907,-0.247453972697258,-0.948625385761261,0.11354445134136468,-0.11311481001438244,-0.10906230604114711,0.9810290131686568,-0.40658384561538696,-0.5257008671760559,-1.6948997974395752,0.0016368627548217773,0.1362953782081604,-0.08215934038162231
2025-09-16T01:54:42Z,-0.20644932263518193,0.24883432112279183,-0.2310144176907186,-0.19867241382598877,-0.24627439677715302,-0.9486190676689148,0.11082956613188988,-0.11578969938298923,-0.12645281726662333,0.978937709754419,-0.2763020396232605,-0.25457698106765747,-1.2765859365463257,0.015694931149482727,0.12504714727401733,-0.07764065265655518
2025-09-16T01:54:42Z,-0.2040998093471985,0.24909871095881586,-0.2548068460100982,-0.19642986357212067,-0.24653063714504242,-0.9490194916725159,0.1097360863476031,-0.11596660151699616,-0.13797176228370073,0.9774831740632565,-0.14733755588531494,-0.06302593648433685,-0.9266542196273804,0.011985436081886292,0.10338713228702545,-0.05939418077468872
2025-09-16T01:54:42Z,-0.19976445212349675,0.25027424604408327,-0.26512714214266253,-0.19225604832172394,-0.24766971170902252,-0.9495774507522583,0.11002213484112526,-0.11448320580615177,-0.14282497273798508,0.9769286387695992,-0.09845355153083801,0.008511915802955627,-0.6593823432922363,0.006878748536109924,0.10252629220485687,-0.04391884803771973
2025-09-16T01:54:42Z,-0.19541553248768898,0.25140634694567304,-0.2754556521659011,-0.18807004392147064,-0.24876639246940613,-0.9501289129257202,0.1103053033950221,-0.11299681910176629,-0.14767444349475867,0.9763485969692828,-0.04956955090165138,0.08004976809024811,-0.39211052656173706,0.001759842038154602,0.1016230583190918,-0.02845001220703125
2025-09-16T01:54:42Z,-0.1910535348841823,0.2524948532433703,-0.28579208016236435,-0.1838722825050354,-0.2498205304145813,-0.9506738185882568,0.1105855845159164,-0.11150747864815432,-0.15252004044366613,0.9757430488163951,-0.0006855465471744537,0.1515876203775406,-0.1248386800289154,-0.003370821475982666,0.10067726671695709,-0.012987732887268066
2025-09-16T01:54:42Z,-0.18773515744686173,0.2520837034569045,-0.2830273370199938,-0.1807357370853424,-0.24942238628864288,-0.9513795375823975,0.11078893612355707,-0.10970882065582688,-0.15097181634559179,0.9761645638344864,0.005668250378221273,0.16501349210739136,-0.034269750118255615,-0.0014315396547317505,0.0769888311624527,-0.010048329830169678
2025-09-16T01:54:42Z,-0.18441596211570524,0.2516814434224591,-0.2802615131776635,-0.177595317363739,-0.24903282523155212,-0.95207279920578,0.11099164026740713,-0.10790952116927491,-0.14942272140634996,0.9765803578037738,0.012022047303617,0.17843934893608093,0.05629917234182358,0.0005038529634475708,0.05330894887447357,-0.007121562957763672
2025-09-16T01:54:42Z,-0.18109596688391952,0.2512880612889537,-0.27749458368841873,-0.1744510978460312,-0.24865181744098663,-0.9527534246444702,0.11119368948833087,-0.10610958763051308,-0.1478727407247901,0.9769904307413784,0.01837584376335144,0.1918652206659317,0.14686809480190277,0.002435460686683655,0.029637590050697327,-0.004207253456115723
2025-09-16T01:54:42Z,-0.17777519024733202,0.25090360239570314,-0.2747266143196174,-0.1713031530380249,-0.2482794225215912,-0.9534215331077576,0.11139509867035782,-0.10430903495781317,-0.14632190410321316,0.9773947826130583,0.024729641154408455,0.20529109239578247,0.23743700981140137,0.004363328218460083,0.005974888801574707,-0.0013054609298706055
2025-09-16T01:54:42Z,-0.1751431083200579,0.24937481741376452,-0.26964478900461264,-0.16885901987552643,-0.24679821729660034,-0.9542417526245117,0.11109919524014546,-0.10264549338216494,-0.14363791819656518,0.9780025559048741,0.03496624529361725,0.19222381711006165,0.27087104320526123,0.0061646997928619385,-0.0002365708351135254,0.0012703537940979004
2025-09-16T01:54:43Z,-0.1727477635128308,0.24839669262240216,-0.2638835052305366,-0.16661420464515686,-0.24585022032260895,-0.9548808336257935,0.11108303601740242,-0.1010947249016928,-0.14065299081645366,0.9785995885010602,0.04700998589396477,0.18662235140800476,0.2804453372955322,0.008857548236846924,-0.009368374943733215,0.0024646520614624023
2025-09-16T01:54:43Z,-0.1707300098680831,0.2483836413059089,-0.25842498444841355,-0.16468770802021027,-0.24583756923675537,-0.9552182555198669,0.11149127777245328,-0.09980268877689251,-0.13786875468382934,0.9790818899224846,0.0505225732922554,0.1640881448984146,0.25724083185195923,0.007457762956619263,-0.013628646731376648,0.008238017559051514
2025-09-16T01:54:43Z,-0.1687121365429866,0.24838118449425103,-0.25296638202562843,-0.1627599596977234,-0.24583518505096436,-0.9555491805076599,0.11189840310553482,-0.09850963808980225,-0.13508313648250997,0.9795544773688648,0.054035160690546036,0.14155393838882446,0.23403632640838623,0.0060567110776901245,-0.017878636717796326,0.014004886150360107
2025-09-16T01:54:43Z,-0.16772620640707012,0.24872562517702615,-0.24844748923930743,-0.16180363297462463,-0.2461690455675125,-0.9556256532669067,0.11235538131484933,-0.09779283568699151,-0.13282582232864512,0.9798826317184409,0.04780866205692291,0.10521635413169861,0.21418753266334534,0.005896225571632385,-0.015581473708152771,0.014372646808624268
2025-09-16T01:54:43Z,-0.166741798811847,0.24907437419474718,-0.2439284915244939,-0.16084857285022736,-0.24650704860687256,-0.9556997418403625,0.11281169709073992,-0.09707545137743848,-0.13056769680124694,0.9802049457415252,0.04158216342329979,0.06887876987457275,0.19433872401714325,0.005737006664276123,-0.013280153274536133,0.014738023281097412
2025-09-16T01:54:43Z,-0.16667176060045533,0.24956417902944814,-0.24045896602698566,-0.16076157987117767,-0.24698171019554138,-0.9555918574333191,0.1132251554397253,-0.09687179527993028,-0.12887955968911538,0.9804008389910362,0.03265805542469025,0.047932177782058716,0.16216318309307098,0.006489396095275879,-0.014996364712715149,0.012106001377105713
2025-09-16T01:54:43Z,-0.16660346502084172,0.2500542393581857,-0.23698909033825352,-0.16067622601985931,-0.24745656549930573,-0.9554833173751831,0.11363827140469732,-0.09666784076563563,-0.12719104655555083,0.980593692833855,0.023733947426080704,0.026985589414834976,0.1299876570701599,0.0072433799505233765,-0.016712382435798645,0.009473264217376709
2025-09-16T01:54:43Z,-0.1668540432908954,0.250312156353452,-0.234565673526292,-0.16090503334999084,-0.24770644307136536,-0.9553800821304321,0.1138663204128565,-0.0966665381520335,-0.12602572394511444,0.9807178173964067,0.004421768710017204,0.003914708271622658,0.0983785092830658,0.005113065242767334,-0.0131663978099823,0.009110093116760254
2025-09-16T01:54:43Z,-0.16738735571607757,0.2501804147248177,-0.23274551428617463,-0.16141997277736664,-0.24757881462574005,-0.9553263187408447,0.11385611098619605,-0.09681753487206538,-0.1251590495187423,0.9808150747371094,-0.015638314187526703,-0.01490013487637043,0.08092529326677322,0.0010297000408172607,-0.006443038582801819,0.006989896297454834
2025-09-16T01:54:43Z,-0.1680372764496896,0.24972127075036635,-0.23129108917853125,-0.16205981373786926,-0.24713392555713654,-0.9553331732749939,0.11366030430583707,-0.09702965901580035,-0.12446707527575843,0.9809048595803241,-0.029676703736186028,-0.02772408351302147,0.07110542058944702,0.0015617609024047852,-0.003931507468223572,0.0026314854621887207
2025-09-16T01:54:43Z,-0.16884945312044944,0.24920025243278046,-0.23006274667899382,-0.1628572791814804,-0.2466290444135666,-0.9553279876708984,0.11341338802164538,-0.09733134007514628,-0.12389282896734147,0.9809762701254162,-0.031158676370978355,-0.02995411492884159,0.06496592611074448,-0.0014924407005310059,-0.004340052604675293,0.0032829642295837402
2025-09-16T01:54:43Z,-0.1697385004217006,0.24882621390901472,-0.22883228136840164,-0.16372211277484894,-0.24626654386520386,-0.9552736878395081,0.11323451040316997,-0.09767848082272616,-0.12332671763133782,0.9810337834338457,-0.018447808921337128,-0.031088663265109062,0.06582609564065933,-0.0035388320684432983,-0.005108773708343506,0.0011760592460632324
2025-09-16T01:54:43Z,-0.17062699070481654,0.2484511022116021,-0.22760227140937328,-0.16458648443222046,-0.24590297043323517,-0.9552188515663147,0.11305557323145997,-0.09802557679837161,-0.12276054614286223,0.9810908199739409,-0.005736939609050751,-0.03222321346402168,0.06668627262115479,-0.005585670471191406,-0.005878552794456482,-0.0009313821792602539
2025-09-16T01:54:43Z,-0.1713866161191992,0.24829142104255053,-0.22637947563286812,-0.16531872749328613,-0.24574817717075348,-0.955132246017456,0.11299054781295148,-0.09832100718730055,-0.12219800785095904,0.9811390308477768,0.002023670356720686,-0.014553187415003777,0.057321641594171524,-0.0004528909921646118,-0.008425027132034302,-0.0068277716636657715
