timestamp,attitude_roll,attitude_pitch,attitude_yaw,gravity_x,gravity_y,gravity_z,quaternion_x,quaternion_y,quaternion_z,quaternion_w,rotation_rate_x,rotation_rate_y,rotation_rate_z,user_acceleration_x,user_acceleration_y,user_acceleration_z
2025-09-16T01:57:00Z,-0.15898419745773426,0.314674058378252,-0.22521576095866574,-0.15054160356521606,-0.3095065951347351,-0.9389051795005798,0.14639172023121863,-0.09548234807946948,-0.12299518773908143,0.9768954540424307,-0.009554454125463963,-0.005258942022919655,-0.015452100895345211,0.0013431459665298462,0.000235825777053833,-0.0005480051040649414
2025-09-16T01:57:00Z,-0.15894940599791402,0.31460557736281797,-0.2254304546919832,-0.15051229298114777,-0.309441477060318,-0.9389313459396362,0.14635006190439934,-0.09547769575479455,-0.12309543603694749,0.9768895572059377,-0.008433066308498383,-0.0031042329501360655,-0.017814377322793007,0.002334907650947571,-0.000515669584274292,-0.0007627606391906738
2025-09-16T01:57:00Z,-0.1586949858744625,0.31450457739116516,-0.22608889741598084,-0.15027834475040436,-0.30934545397758484,-0.9390004277229309,0.14628485811424244,-0.09539663298058099,-0.12339540312675176,0.9768693045892163,-0.005229392554610968,0.003233090043067932,-0.024746425449848175,0.0014168620109558105,-0.0025902092456817627,-0.0016900300979614258
2025-09-16T01:57:00Z,-0.15851235984859566,0.314444119904373,-0.22647182217596468,-0.15010981261730194,-0.3092879354953766,-0.939046323299408,0.1462482600793729,-0.09533244884511408,-0.12356726176632254,0.976859331961013,-0.006438341923058033,0.003636686597019434,-0.02495218813419342,0.00035844743251800537,-0.0012756884098052979,-0.0009933710098266602
2025-09-16T01:57:00Z,-0.1583937702274308,0.3144031931367567,-0.22682417950940764,-0.1500004380941391,-0.30924901366233826,-0.9390766024589539,0.14621875033863604,-0.09529826145884576,-0.12372946124133657,0.9768465690110377,-0.0045570675283670425,-0.0018741236999630928,-0.025058645755052567,0.0006248801946640015,-0.0008106827735900879,-0.00044280290603637695
2025-09-16T01:57:00Z,-0.1582751756371886,0.3143622413269206,-0.22717654501077258,-0.14989106357097626,-0.3092100918292999,-0.9391069412231445,0.14618924061502014,-0.09526405917142688,-0.12389166071635074,0.9768338060610621,-0.0026757933665066957,-0.007384934928268194,-0.025165103375911713,0.0008913129568099976,-0.00034567713737487793,0.00010776519775390625
2025-09-16T01:57:00Z,-0.158233969216376,0.31442452337895815,-0.22793967620433359,-0.14984934031963348,-0.3092693090438843,-0.939094066619873,0.14618594763195242,-0.09530281333537267,-0.12426323043367277,0.9767833112077053,-0.0018266651313751936,-0.01164286583662033,-0.01905500516295433,0.0009355843067169189,0.0017720460891723633,0.0014541149139404297
2025-09-16T01:57:00Z,-0.15827706913757486,0.3144251641928234,-0.22814031731742482,-0.1498897820711136,-0.3092699348926544,-0.939087450504303,0.14617401543194716,-0.09533855498462147,-0.12436438522185904,0.976768770651372,-0.0016624724958091974,-0.012394623830914497,-0.015665123239159584,0.0007085055112838745,0.002540498971939087,0.0013809800148010254
2025-09-16T01:57:00Z,-0.15848298596624522,0.3144493446917984,-0.2286681597189322,-0.15008196234703064,-0.30929291248321533,-0.9390491247177124,0.14614786652860917,-0.09547890886778213,-0.12463794912636662,0.9767240508482886,-0.0017364432569593191,-0.01126693096011877,-0.011897328309714794,0.0019466429948806763,0.0008056163787841797,0.0006561875343322754
2025-09-16T01:57:00Z,-0.1585464355971207,0.31443171426282424,-0.22885180687313514,-0.15014241635799408,-0.30927616357803345,-0.9390450119972229,0.14612650784721734,-0.09552243299825885,-0.12473174445817183,0.9767110088646866,-0.0013469010591506958,-0.009853409603238106,-0.01141348946839571,0.00154934823513031,0.0009376108646392822,0.0010831952095031738
2025-09-16T01:57:00Z,-0.15860988584240635,0.3144140070061699,-0.22903544851651506,-0.15020285546779633,-0.3092593252658844,-0.9390408992767334,0.14610510447093428,-0.09556594962679743,-0.12482553233940168,0.9766979668896449,-0.0009573587449267507,-0.008439888246357441,-0.0109296515583992,0.0011520534753799438,0.0010695457458496094,0.0015102028846740723
2025-09-16T01:57:00Z,-0.1587604555999611,0.3143211454311413,-0.22943405979330983,-0.15034878253936768,-0.30917099118232727,-0.9390466213226318,0.1460311565966816,-0.09566392926633169,-0.12502839859966297,0.9766735343020756,-0.00855795107781887,-0.013044964522123337,-0.011790930293500423,0.0005461573600769043,0.0020007193088531494,0.0007153153419494629
2025-09-16T01:57:00Z,-0.15888415594026062,0.3139423438564438,-0.23009484098101712,-0.15048345923423767,-0.3088107407093048,-0.9391435980796814,0.14580628441028995,-0.09575351750447332,-0.12534876243176804,0.976657192158099,-0.01220958586782217,-0.007676797918975353,-0.017914215102791786,0.0010091066360473633,0.0024500787258148193,-0.0011230707168579102
2025-09-16T01:57:00Z,-0.15887836657108292,0.31378907519579013,-0.23033518424132582,-0.15048551559448242,-0.3086649477481842,-0.9391911625862122,0.1457200731387196,-0.09576048160630007,-0.12546110725904194,0.9766549769129087,-0.013935442082583904,-0.007972219958901405,-0.01566164568066597,0.0004987716674804688,0.0017499923706054688,0.0005020499229431152
2025-09-16T01:57:00Z,-0.15888939851502373,0.31362779579307826,-0.23053048586906305,-0.1505037546157837,-0.30851155519485474,-0.9392386674880981,0.14563104036209304,-0.09577195752067458,-0.1255524444772778,0.9766554084107231,-0.011478742584586143,-0.006968767382204533,-0.012750229798257351,-6.42538070678711e-05,0.0010425746440887451,-0.0004431605339050293
2025-09-16T01:57:00Z,-0.1589004840327094,0.3134665310226576,-0.23072578482205056,-0.15052203834056854,-0.3083581328392029,-0.9392861127853394,0.14554200757690608,-0.09578344088562435,-0.1256437816955136,0.9766558399085375,-0.009022042155265808,-0.00596531480550766,-0.009838813915848732,-0.0006272494792938232,0.0003351867198944092,-0.0013883709907531738
2025-09-16T01:57:00Z,-0.15869651101613125,0.3133839758667722,-0.23110263771553563,-0.1503344625234604,-0.3082796037197113,-0.9393419027328491,0.14549636361317875,-0.0957070870017235,-0.12581050258848686,0.9766486149986324,0.0020231574308127165,0.01651415042579174,-0.015796303749084473,0.0028227269649505615,-0.005699038505554199,-0.0066068172454833984
2025-09-16T01:57:00Z,-0.15750204478357316,0.3135614707714512,-0.23192902761291986,-0.14920376241207123,-0.30844846367836,-0.9394667744636536,0.14561908432847273,-0.09519295136981856,-0.1261323941520109,0.9766390660344041,-0.0012285405537113547,0.031511154025793076,-0.029554346576333046,0.001863718032836914,0.00238800048828125,-0.0009530782699584961
2025-09-16T01:57:00Z,-0.15708971776030617,0.3135266490315009,-0.23230194336526772,-0.14881806075572968,-0.30841532349586487,-0.9395387768745422,0.14561031600796154,-0.09501698082824422,-0.12628344608951156,0.9766379984097895,-0.006917302496731281,0.019621942192316055,-0.027185481041669846,-4.863739013671875e-05,0.004399746656417847,0.0026264190673828125
2025-09-16T01:57:00Z,-0.15659175755428426,0.313410672408948,-0.23311530412535386,-0.14835576713085175,-0.3083049952983856,-0.9396481513977051,0.1455463995415499,-0.0948270962875707,-0.12664096375222605,0.9766197062281508,-0.013628079555928707,-0.005502689629793167,-0.02312377654016018,-0.0007285177707672119,-9.709596633911133e-05,0.0040898919105529785
2025-09-16T01:57:00Z,-0.1564883905035133,0.31337266350122417,-0.23347206049801425,-0.1482604593038559,-0.30826884508132935,-0.9396750330924988,0.1455174173735939,-0.09480062831367729,-0.12680652883267846,0.9766051512708075,-0.006009585224092007,-0.007121154572814703,-0.024529187008738518,-0.0015583038330078125,-0.0025842785835266113,0.004086554050445557
2025-09-16T01:57:00Z,-0.15648954833519493,0.313462337758428,-0.23420272246781287,-0.14825724065303802,-0.3083541691303253,-0.9396475553512573,0.14552661886870463,-0.09485896952034728,-0.12716601733224359,0.9765513324364302,0.005615714471787214,-0.013387138023972511,-0.02335444651544094,-0.0037830770015716553,-9.527802467346191e-05,0.0032256245613098145
2025-09-16T01:57:00Z,-0.1565521641249013,0.31354896943205746,-0.23449473054028425,-0.14831191301345825,-0.3084365725517273,-0.9396118521690369,0.14555120073997208,-0.09491524968322242,-0.12731568162342152,0.9765227290446682,0.004318924155086279,-0.012022994458675385,-0.020927194505929947,-0.0035519450902938843,0.000767141580581665,-0.0003745555877685547
2025-09-16T01:57:00Z,-0.15609970498058462,0.3137275874655351,-0.23496355522508094,-0.14787819981575012,-0.30860647559165955,-0.9396244287490845,0.14564526722834303,-0.09473768366147492,-0.12751686563198347,0.9764996692983602,0.005821253638714552,0.00600312277674675,-0.026365742087364197,-0.005185738205909729,-0.0006118714809417725,-0.002579808235168457
2025-09-16T01:57:00Z,-0.15564713545919492,0.31390603327268657,-0.23543248675145548,-0.14744439721107483,-0.30877619981765747,-0.9396368265151978,0.14573933372527506,-0.09456011018915217,-0.1277180346709112,0.9764765499645708,0.007323583588004112,0.024029240012168884,-0.03180428966879845,-0.006819605827331543,-0.0019910037517547607,-0.004785299301147461
2025-09-16T01:57:00Z,-0.15519442380496337,0.31408428947437417,-0.23590154323202178,-0.14701049029827118,-0.30894574522972107,-0.9396491050720215,0.14583340023932917,-0.09438252181567927,-0.12791920357287156,0.976453311421577,0.008825913071632385,0.04205535352230072,-0.0372428372502327,-0.008453622460365295,-0.0033704042434692383,-0.006990969181060791
2025-09-16T01:57:00Z,-0.15350167533689255,0.31453493976034563,-0.23711527247806247,-0.14539837837219238,-0.30937430262565613,-0.9397589564323425,0.1461054670273648,-0.0936681519409145,-0.12840111177216518,0.9764181870101961,0.01343846321105957,0.057954736053943634,-0.054489631205797195,-0.0177476704120636,-0.0005605220794677734,-0.0080949068069458
2025-09-16T01:57:00Z,-0.15219910141460044,0.31488721694919214,-0.2380688538011273,-0.14415761828422546,-0.3097092807292938,-0.9398397207260132,0.14631717143783698,-0.09312041210197203,-0.1287813558569563,0.9763887822475213,0.022996194660663605,0.09919792413711548,-0.08660675585269928,-0.020520418882369995,-0.010706484317779541,-0.027949750423431396
2025-09-16T01:57:01Z,-0.14502912420968,0.3168897716479073,-0.2436524328381428,-0.1373254358768463,-0.3116127550601959,-0.940233588218689,0.14750743229155724,-0.09013742547815415,-0.1310342885746745,0.9761898558843906,0.049265213310718536,0.23984093964099884,-0.25837278366088867,-0.019218772649765015,-0.04313313961029053,-0.04573553800582886
2025-09-16T01:57:01Z,-0.13784280637563734,0.31885415451371435,-0.24925463269170758,-0.13048076629638672,-0.3134787380695343,-0.9405880570411682,0.14869539996905207,-0.08715304296016389,-0.13328519237917047,0.975975911472809,0.07553423196077347,0.3804839849472046,-0.43013879656791687,-0.017929598689079285,-0.07559725642204285,-0.06356066465377808
2025-09-16T01:57:01Z,-0.1306403655340524,0.3207802317151523,-0.25487519512066714,-0.12362402677536011,-0.3153071403503418,-0.9409030079841614,0.14988108931154934,-0.08416731671914916,-0.1355340523008095,0.9757468894252955,0.1018032431602478,0.5211269855499268,-0.6019048094749451,-0.016652502119541168,-0.10809895396232605,-0.0814252495765686
2025-09-16T01:57:01Z,-0.10000336644930155,0.3277037355693596,-0.2828695984098914,-0.0945238545536995,-0.3218698799610138,-0.9420536160469055,0.15433795189760752,-0.07178426780667398,-0.1469733524430746,0.9743846536986276,0.14233538508415222,0.9063449501991272,-1.244667649269104,-0.04570017755031586,-0.15903866291046143,-0.08583861589431763
2025-09-16T01:57:01Z,-0.08127341433904232,0.33121760969610586,-0.30315660438510905,-0.07677139341831207,-0.32519474625587463,-0.9425256252288818,0.15677764639931865,-0.06448224915963845,-0.15543009588076517,0.9731927379356184,0.14877817034721375,0.9750576615333557,-1.5024631023406982,-0.0640515610575676,-0.15150734782218933,-0.05925726890563965
2025-09-16T01:57:01Z,-0.062450305043853876,0.3343704045269284,-0.3235330954474086,-0.05895329639315605,-0.32817456126213074,-0.9427756667137146,0.15919659335427674,-0.05717171673282339,-0.16386629178696077,0.9718721592748258,0.15522095561027527,1.0437703132629395,-1.760258436203003,-0.08246859908103943,-0.14432114362716675,-0.032897889614105225
2025-09-16T01:57:01Z,-0.043543512681655634,0.33715937371350313,-0.3439900202753197,-0.041078951209783554,-0.33080780506134033,-0.9428036212921143,0.1615945085406029,-0.04985362759984246,-0.17228083768196206,0.9704230977970061,0.1616637408733368,1.112483024597168,-2.0180537700653076,-0.10094189643859863,-0.1374814212322235,-0.0067604780197143555
2025-09-16T01:57:01Z,0.02545651144255932,0.3440823174419852,-0.4300748051613064,0.023961804807186127,-0.33733299374580383,-0.9410803914070129,0.1699131642126684,-0.024275844421963587,-0.2080880884687719,0.9629327422290151,0.17270544171333313,1.1167418956756592,-2.3174729347229004,-0.10996853560209274,-0.03661194443702698,0.024638116359710693
2025-09-16T01:57:01Z,0.05923855183537496,0.3453810068862379,-0.4741248945579362,0.055707722902297974,-0.3385552763938904,-0.9392960071563721,0.17380593384909843,-0.011978583561031608,-0.22630713216925422,0.9583491304232367,0.1577107459306717,1.1025694608688354,-2.288686990737915,-0.09278344362974167,0.019816994667053223,0.02276712656021118
2025-09-16T01:57:01Z,0.09305582889236859,0.3452776474979232,-0.51820590026765,0.08743751049041748,-0.33845800161361694,-0.9369102716445923,0.17760840954893467,0.00032490007010798597,-0.24440864476260304,0.9532678353613468,0.14271605014801025,1.0883970260620117,-2.2599010467529297,-0.07558222115039825,0.07492640614509583,0.02029484510421753
2025-09-16T01:57:01Z,0.11264360641312918,0.34433566351569755,-0.5430025448006649,0.1058073416352272,-0.33757147192955017,-0.935334324836731,0.17965443940105907,0.007557244466473138,-0.2545036520312706,0.9502078147248378,0.12820549309253693,1.0637962818145752,-2.1536521911621094,-0.0656728520989418,0.09660808742046356,0.020063459873199463
2025-09-16T01:57:01Z,0.13219238924498541,0.3429372101122744,-0.5677646052034453,0.12413271516561508,-0.3362547755241394,-0.9335544109344482,0.18167032273483338,0.014788324537167215,-0.2645560078952293,0.9469884601764681,0.1136949360370636,1.0391954183578491,-2.047403335571289,-0.05571902543306351,0.1178596168756485,0.01962810754776001
2025-09-16T01:57:01Z,0.15168713876850043,0.3410839032079182,-0.5924786264755623,0.1424013078212738,-0.3345088064670563,-0.9315716624259949,0.18365573032664745,0.022016923653964203,-0.27456398436887314,0.9436102505390841,0.09918437898159027,1.0145946741104126,-1.9411544799804688,-0.04570841044187546,0.13868185877799988,0.018989920616149902
2025-09-16T01:57:01Z,0.16767429217747543,0.339283072562416,-0.6109849572931607,0.15737593173980713,-0.332811176776886,-0.9297685623168945,0.1852706191792052,0.028116208841915926,-0.2819213716551535,0.9409593428197004,0.10022585093975067,0.981766402721405,-1.7675230503082275,-0.03402864933013916,0.14138267934322357,0.023752212524414062
2025-09-16T01:57:01Z,0.1836124668230169,0.3372039603780773,-0.629445736049266,0.17230010032653809,-0.33084985613822937,-0.9278205633163452,0.1868667888961819,0.03421265078754528,-0.2892502779191278,0.9382133983579231,0.10126733034849167,0.9489381313323975,-1.5938916206359863,-0.02229844033718109,0.14381982386112213,0.028369665145874023
2025-09-16T01:57:01Z,0.21773325666113597,0.33162861835070206,-0.6612337270953299,0.20424693822860718,-0.32558339834213257,-0.9231894016265869,0.18997973733552195,0.04809364911160255,-0.301316277034801,0.9331683037913233,0.0051076337695121765,0.7128573060035706,-0.9762753844261169,0.009832531213760376,0.1441234052181244,0.050941526889801025
2025-09-16T01:57:01Z,0.22876657179039855,0.3291725334258104,-0.6655261703678017,0.2146008461713791,-0.3232601583003998,-0.9216557741165161,0.1906230528561805,0.053244326450265354,-0.3024613386473222,0.9323867032654317,-0.01441991701722145,0.5265713930130005,-0.6056540012359619,0.019437506794929504,0.11526425182819366,0.0437585711479187
2025-09-16T01:57:01Z,0.23977936863678165,0.3266718683079681,-0.6697861194531073,0.22492890059947968,-0.3208927512168884,-0.9200189113616943,0.191260882981708,0.05839346782035023,-0.30359766703323776,0.9315781714579313,-0.03394746780395508,0.3402854800224304,-0.23503261804580688,0.029068291187286377,0.08636091649532318,0.036472439765930176
2025-09-16T01:57:01Z,0.2507714503695948,0.3241269734332783,-0.6740130714398167,0.23522992432117462,-0.3184813857078552,-0.9182791113853455,0.19189318284172333,0.06354092798700293,-0.30472520265642766,0.9307427680419081,-0.053475022315979004,0.15399955213069916,0.13558879494667053,0.038726165890693665,0.05741363763809204,0.029083251953125
2025-09-16T01:57:01Z,0.2567311925144246,0.3231238420467355,-0.6667947574926034,0.24077941477298737,-0.3175303339958191,-0.9171693921089172,0.19209927485543582,0.06717998168462692,-0.3008776831209223,0.9316958568079139,-0.059240568429231644,-0.0697920173406601,0.5665581822395325,0.04703155905008316,0.020678527653217316,0.02157762087881565
2025-09-16T01:57:01Z,0.24730781801863616,0.32595683003470083,-0.6494756710681062,0.23190489411354065,-0.3202154338359833,-0.9185217618942261,0.191434345947681,0.06396885811057271,-0.2934616694988419,0.9344200860398739,-0.04474511370062828,-0.20900873839855194,0.6571633219718933,0.028427034616470337,0.016893893480300903,0.04316866397857666
2025-09-16T01:57:01Z,0.23641551941271147,0.32848019941139145,-0.6335941784654775,0.22169655561447144,-0.3226049244403839,-0.9202046990394592,0.1905268371957824,0.05997636863517771,-0.28686495733515444,0.936915505226274,-0.04606996104121208,-0.3656773865222931,0.729594886302948,0.02195832133293152,0.01988762617111206,0.047226548194885254
2025-09-16T01:57:01Z,0.22284865396567927,0.3308483637687995,-0.6173231305067345,0.20902280509471893,-0.324845552444458,-0.9223799705505371,0.18923344883477983,0.054778698642464464,-0.2803334901791359,0.9394695004543484,-0.05933114513754845,-0.5043033361434937,0.7926206588745117,0.023111701011657715,0.0212421715259552,0.0413590669631958
2025-09-16T01:57:01Z,0.2065092775377596,0.3329566612646417,-0.6000777503659546,0.19378359615802765,-0.32683879137039185,-0.9249996542930603,0.18750645276480543,0.04838912031121404,-0.273601804243794,0.9421474054396803,-0.07205729186534882,-0.6325135231018066,0.8492326736450195,0.02203500270843506,0.022213250398635864,0.04093146324157715
2025-09-16T01:57:01Z,0.18480132503636293,0.33491292193920036,-0.580808211003546,0.1735418438911438,-0.32868698239326477,-0.928357720375061,0.18506547627206718,0.03964711364548498,-0.26639466848383897,0.9450992633730979,-0.0777616798877716,-0.7198490500450134,0.8819477558135986,0.01868303120136261,0.016611605882644653,0.03690296411514282
2025-09-16T01:57:01Z,0.16304416699265714,0.3364730897751755,-0.5614864943740537,0.1532205194234848,-0.33016008138656616,-0.9314063787460327,0.18259802878434236,0.030899433971106786,-0.25914946880712975,0.9479159220195827,-0.0834660679101944,-0.8071845769882202,0.9146628379821777,0.015410661697387695,0.010634839534759521,0.03256505727767944
2025-09-16T01:57:01Z,0.1412487061815323,0.33763566930515965,-0.5421240113979223,0.1328311711549759,-0.3312572240829468,-0.9341437220573425,0.1801044693588429,0.022147325123237565,-0.2518671286741108,0.9505970226900227,-0.08917045593261719,-0.894520103931427,0.9473779201507568,0.012206286191940308,0.004282146692276001,0.027915775775909424
2025-09-16T01:57:01Z,0.11715764045096813,0.33831789503439014,-0.5220580906454309,0.11026383936405182,-0.33190086483955383,-0.9368477463722229,0.17726482783599612,0.012381513843298086,-0.2444325501700698,0.9532452176793804,-0.09125975519418716,-0.9187240600585938,0.9546265006065369,0.008543215692043304,-0.0027633309364318848,0.01975327730178833
2025-09-16T01:57:01Z,0.09222256312520123,0.3384985393268496,-0.5018809525927073,0.08686608821153641,-0.3320712745189667,-0.9392459392547607,0.17427576227031308,0.002230883654518292,-0.2369857235634993,0.9557513291819869,-0.09235788881778717,-0.9220939874649048,0.9448462724685669,0.005386725068092346,-0.006928741931915283,0.012616932392120361
2025-09-16T01:57:01Z,0.06742935173836764,0.33808899246349944,-0.481958409469911,0.0635640099644661,-0.3316849172115326,-0.9412463903427124,0.17121629688498066,-0.007860725932288896,-0.22961096938563355,0.9580719277126618,-0.09992247074842453,-0.9026246666908264,0.92739337682724,0.0043948739767074585,-0.005980104207992554,0.0022395849227905273
2025-09-16T01:57:01Z,0.04326034935547541,0.3369888094083203,-0.4625325723465311,0.04081442579627037,-0.330646812915802,-0.9428715705871582,0.16808271920509318,-0.01767465204471206,-0.22238095157841095,0.9601991215689794,-0.11212258040904999,-0.8649114370346069,0.8935185670852661,0.0037217922508716583,-0.00793197751045227,-0.011850714683532715
2025-09-16T01:57:01Z,0.020506716692119988,0.3352065144036644,-0.44388514589785455,0.019364008679986,-0.3289642632007599,-0.9441438317298889,0.16494468075858446,-0.02685771662649683,-0.21536057476337184,0.9621286638495363,-0.12175936251878738,-0.7945243716239929,0.8653289675712585,-0.0022841133177280426,-0.0009236037731170654,-0.016102492809295654
2025-09-16T01:57:01Z,-0.0009314419400420963,0.3328948915595891,-0.42569669314640046,-0.0008803038508631289,-0.32678040862083435,-0.9450998902320862,0.16184405483159184,-0.035447958786232026,-0.20840074776904277,0.963908111577054,-0.12710022926330566,-0.747732400894165,0.8478018045425415,-0.006526392884552479,0.0002682209014892578,-0.015073418617248535
2025-09-16T01:57:01Z,-0.02109341816231081,0.3301556790974336,-0.4080048552305719,-0.019952721893787384,-0.3241903483867645,-0.945781409740448,0.15880500450832222,-0.04347707313604838,-0.20152234213610365,0.9655460834498709,-0.1283513754606247,-0.6887174844741821,0.8259178996086121,-0.0037702526897192,-0.0002453923225402832,-0.020968079566955566
2025-09-16T01:57:01Z,-0.039691376433445766,0.3271161706385137,-0.3909153665562347,-0.037576790899038315,-0.3213135004043579,-0.9462270140647888,0.15589527481060936,-0.05082459263391881,-0.1947555698258482,0.9670489224565518,-0.12668468058109283,-0.6125707030296326,0.7947433590888977,-0.0007278062403202057,-0.004011392593383789,-0.026179075241088867
2025-09-16T01:57:01Z,-0.05628777793168207,0.32383499850699426,-0.3746704513658003,-0.053333885967731476,-0.3182046115398407,-0.9465206265449524,0.15315534935715808,-0.05729846908446998,-0.18818972695783015,0.9684238573742916,-0.1279573142528534,-0.5263781547546387,0.7512685060501099,0.0007240921258926392,-0.00784793496131897,-0.027309060096740723
2025-09-16T01:57:01Z,-0.07086446520747458,0.320320207581044,-0.3595189604317165,-0.06720364093780518,-0.31487053632736206,-0.9467524290084839,0.15055546524239435,-0.06290328765507538,-0.181952327402516,0.9696748544165099,-0.12936453521251678,-0.4476524889469147,0.7015129327774048,-0.0002554655075073242,-0.011558353900909424,-0.02780991792678833
2025-09-16T01:57:01Z,-0.08338391109883118,0.31680121805184985,-0.3455979357540887,-0.07914268225431442,-0.31152862310409546,-0.94693523645401,0.1481781402953423,-0.06764327078090394,-0.1761168601419507,0.9707987893088417,-0.12233811616897583,-0.381992906332016,0.6440445780754089,-0.0030313879251480103,-0.014910221099853516,-0.021778345108032227
2025-09-16T01:57:01Z,-0.09423186400614408,0.313473250427623,-0.3328710999756807,-0.08950719237327576,-0.30836454033851624,-0.9470479488372803,0.14606076527697853,-0.0717097142174031,-0.17070613678138466,0.9717938477020326,-0.10406476259231567,-0.33321499824523926,0.5914310216903687,-0.007287822663784027,-0.01832553744316101,-0.016897261142730713
2025-09-16T01:57:01Z,-0.1031419095454344,0.31102629825723943,-0.32215373279331444,-0.09801916033029556,-0.3060359060764313,-0.9469605684280396,0.14451126017803587,-0.07507475639292405,-0.16611591438434878,0.9725665319801318,-0.08040183782577515,-0.2985321879386902,0.5267737507820129,-0.00873875617980957,-0.020801931619644165,-0.018389999866485596
2025-09-16T01:57:01Z,-0.11201682841811088,0.3084887532087464,-0.311468172825782,-0.1065058559179306,-0.3036191165447235,-0.9468219876289368,0.1429566470237725,-0.0784371477417939,-0.16151979625155077,0.9733047715266381,-0.056738920509815216,-0.2638493478298187,0.4621164798736572,-0.010214954614639282,-0.023366451263427734,-0.019933879375457764
2025-09-16T01:57:01Z,-0.1193912121101675,0.30661305917854614,-0.302516279208003,-0.1135527566075325,-0.30183145403862,-0.9465746283531189,0.14180998137366532,-0.08125642802828145,-0.15765601120869083,0.9738745612858569,-0.03895580396056175,-0.22735512256622314,0.3988110423088074,-0.013689003884792328,-0.019864529371261597,-0.018811464309692383
2025-09-16T01:57:01Z,-0.12566388679200663,0.305263664045572,-0.2948984989506353,-0.11953897774219513,-0.30054470896720886,-0.9462469816207886,0.14097568149238285,-0.0836801580272639,-0.15436410690013244,0.9743178088884792,-0.027527764439582825,-0.1965371072292328,0.34118199348449707,-0.01674504578113556,-0.01757940649986267,-0.0173875093460083
2025-09-16T01:57:01Z,-0.13105840674177072,0.304223529484908,-0.28844075261402424,-0.12468254566192627,-0.2995525002479553,-0.9458977580070496,0.14032840012695874,-0.08578494219527642,-0.15157579750345293,0.9746658852491847,-0.022799640893936157,-0.1641739010810852,0.2864510118961334,-0.016861818730831146,-0.01518547534942627,-0.014992296695709229
2025-09-16T01:57:01Z,-0.1354750124433886,0.3034134809472849,-0.28308126274263834,-0.1288917064666748,-0.29877954721450806,-0.9455779790878296,0.13983244501143055,-0.0875093839542759,-0.14925522762030893,0.9749419581803003,-0.02092498540878296,-0.13981173932552338,0.23581916093826294,-0.017991304397583008,-0.013542473316192627,-0.010211706161499023
2025-09-16T01:57:01Z,-0.13924410514110427,0.30269950124494743,-0.278705670849866,-0.1324843317270279,-0.2980981171131134,-0.9452964663505554,0.13939690445425432,-0.0889958414871963,-0.14736867330279507,0.975156735666994,-0.023484840989112854,-0.11407303810119629,0.19048342108726501,-0.016861438751220703,-0.012528032064437866,-0.008402705192565918
2025-09-16T01:57:01Z,-0.1422186105996281,0.30197264126130136,-0.27525929330605187,-0.13532620668411255,-0.2974042296409607,-0.9451124668121338,0.13897770737371679,-0.0901607729006231,-0.14587767179382782,0.9753336865406168,-0.023347282782197,-0.08344870805740356,0.1473432332277298,-0.016192540526390076,-0.011317312717437744,-0.007797122001647949
2025-09-16T01:57:01Z,-0.14440316110237283,0.30131533327851073,-0.27262093172286245,-0.13741862773895264,-0.29677659273147583,-0.9450078010559082,0.13861695169459431,-0.0910023341145271,-0.14472621603764269,0.9754784183871742,-0.0254752766340971,-0.057905182242393494,0.11038421094417572,-0.01706378161907196,-0.007637739181518555,-0.006994485855102539
2025-09-16T01:57:01Z,-0.14598758541915632,0.3006824491225277,-0.2706543896922401,-0.13894304633140564,-0.296172171831131,-0.9449745416641235,0.13828277659269197,-0.09160018743022873,-0.1438605953982499,0.9755979666660456,-0.025180164724588394,-0.03707427531480789,0.08359670639038086,-0.019797295331954956,-0.0017148256301879883,-0.0036031007766723633
2025-09-16T01:57:01Z,-0.1471503307554011,0.30007842251917005,-0.2691557345711558,-0.140067920088768,-0.2955951690673828,-0.9449891448020935,0.13797258015511324,-0.09202710717270116,-0.14319421281146513,0.9756997622503922,-0.025724144652485847,-0.023108605295419693,0.06768739223480225,-0.02144584059715271,0.001472383737564087,0.00015431642532348633
2025-09-16T01:57:02Z,-0.14811332775527308,0.299488624377578,-0.267844473374715,-0.1410035789012909,-0.29503169655799866,-0.9450260996818542,0.13767560720005007,-0.0923708637771352,-0.14260541359956022,0.9757954486210623,-0.02605721727013588,-0.019384561106562614,0.06148407608270645,-0.019665583968162537,0.002244323492050171,-0.0005608201026916504
2025-09-16T01:57:02Z,-0.1488909940172573,0.2989137482559989,-0.2666584137313903,-0.1417635828256607,-0.29448235034942627,-0.945083737373352,0.137393776911329,-0.0926341267577854,-0.14206498119470506,0.9758890528605869,-0.025416139513254166,-0.0037854239344596863,0.05040445551276207,-0.016437187790870667,0.00016555190086364746,-0.004486024379730225
2025-09-16T01:57:02Z,-0.14946599542994357,0.2983573553475138,-0.2656515782787542,-0.14233136177062988,-0.2939505875110626,-0.945163905620575,0.1371273628256611,-0.09281226961583859,-0.14159830352783762,0.9759773867509612,-0.020367342978715897,0.008549942634999752,0.04056277871131897,-0.015187159180641174,-0.001559227705001831,-0.004772663116455078
2025-09-16T01:57:02Z,-0.14972406732321183,0.29788977282200424,-0.26483019667353064,-0.14259576797485352,-0.29350361227989197,-0.9452629685401917,0.13691837064635454,-0.09285402098422492,-0.14120259367353008,0.9760600958664296,-0.01492801122367382,0.02113328129053116,0.031837936490774155,-0.0171462744474411,-0.0008514225482940674,-0.004827439785003662
2025-09-16T01:57:02Z,-0.14966189567813823,0.2975607920093033,-0.26414370557740324,-0.14255139231681824,-0.2931891083717346,-0.9453672766685486,0.1367935654764896,-0.09275711683473799,-0.14085444185589677,0.9761371474996327,-0.005810732953250408,0.033586062490940094,0.026850750669836998,-0.017105072736740112,-0.00036031007766723633,-0.0042838454246521
2025-09-16T01:57:02Z,-0.14929203055254583,0.2974163166947056,-0.2635972928492971,-0.1422080248594284,-0.29305097460746765,-0.9454618096351624,0.136774171046094,-0.09253064146430524,-0.14055856653487583,0.9762040062737001,-0.00010117422789335251,0.047542035579681396,0.02043699100613594,-0.013082325458526611,0.0009060204029083252,-0.0049509406089782715
2025-09-16T01:57:02Z,-0.14855718322634331,0.29738693534501254,-0.26320082451159865,-0.14151448011398315,-0.29302290081977844,-0.9455745816230774,0.13682969105704915,-0.09214308856213953,-0.1403139927267228,0.9762680642888918,-0.0004711024812422693,0.05485665425658226,0.012208827771246433,-0.010363638401031494,0.002808868885040283,-0.0022150278091430664
2025-09-16T01:57:02Z,-0.14783587836877246,0.2972948866433434,-0.2628868027171154,-0.14083637297153473,-0.2929348945617676,-0.9457030892372131,0.13684963219412324,-0.09176404805309629,-0.14010890504977827,0.9763304080044231,-0.0035820475313812494,0.05239637941122055,0.009283882565796375,-0.0095597505569458,0.005908310413360596,-4.2557716369628906e-05
2025-09-16T01:57:02Z,-0.14712191170940359,0.29715362606539675,-0.2626964047450739,-0.1401672065258026,-0.29279983043670654,-0.945844292640686,0.13683917938140056,-0.0913941144909129,-0.13996337124481428,0.9763874380823123,-0.005522869993001223,0.04603103548288345,0.002818162553012371,-0.0070545971393585205,0.005689293146133423,0.001547396183013916
2025-09-16T01:57:02Z,-0.14648564339121725,0.29699114014133654,-0.2626345062376195,-0.13957230746746063,-0.2926444411277771,-0.9459803700447083,0.1368069633391239,-0.09106963429567735,-0.13988535685261053,0.9764334233212467,-0.00251961057074368,0.0388198122382164,-0.00601572822779417,-0.0053605735301971436,0.004834890365600586,0.003653407096862793
2025-09-16T01:57:02Z,-0.14590543513671636,0.29694195520867395,-0.2627798752665915,-0.1390255093574524,-0.2925974130630493,-0.9460753798484802,0.13681686217513075,-0.09079340032525922,-0.13991536098074142,0.9764534160194758,0.0036449499893933535,0.03277471661567688,-0.013580627739429474,-0.004189938306808472,0.004349440336227417,0.004448294639587402
